%time,field.header.seq,field.header.stamp,field.header.frame_id,field.unique_id,field.acceleration.x,field.acceleration.y,field.acceleration.z,field.position.x,field.position.y,field.position.z,field.velocity.x,field.velocity.y,field.velocity.z,field.heading,field.accel,field.brake,field.wheel_angle,field.lateral_offset,field.tire_lateral_force_fl,field.tire_lateral_force_fr,field.tire_lateral_force_rl,field.tire_lateral_force_rr,field.side_slip_angle_fl,field.side_slip_angle_fr,field.side_slip_angle_rl,field.side_slip_angle_rr,field.tire_cornering_stiffness_fl,field.tire_cornering_stiffness_fr,field.tire_cornering_stiffness_rl,field.tire_cornering_stiffness_rr
1754715282020639517,512,1754715282623000000,MoraiInfo,0,-4.117026946914848e-06,2.7910066364711383e-06,1.1131447536172344e-05,16.88582708820343,-10.1885631244812,0.061033102422952595,2.5407505290786503e-06,1.916920666644728e-08,-1.7641385241518037e-08,0.0396728515625,0.0,0.0,0.0,0.0,0.0,0.0,0.0,0.0,0.0,0.0,0.0,0.0,0.0,0.0,0.0,0.0
1754715282022845462,513,1754715282624000000,MoraiInfo,0,-4.117026946914848e-06,2.7910066364711383e-06,1.1131447536172344e-05,16.88582708820343,-10.1885631244812,0.061033102422952595,2.5407505290786503e-06,1.916920666644728e-08,-1.7641385241518037e-08,0.0396728515625,0.0,0.0,0.0,0.0,0.0,0.0,0.0,0.0,0.0,0.0,0.0,0.0,0.0,0.0,0.0,0.0
1754715282056311200,514,1754715282655000000,MoraiInfo,0,1.778019168341416e-06,1.6100473203550791e-06,1.3430067156150471e-05,16.88582708820343,-10.1885631244812,0.0610331080108881,2.576311089796945e-06,5.137020053780361e-08,2.509600278699509e-07,0.0396728515625,0.0,0.0,0.0,0.0,0.0,0.0,0.0,0.0,0.0,0.0,0.0,0.0,0.0,0.0,0.0,0.0
1754715282099305256,515,1754715282690000000,MoraiInfo,0,-2.141403001587605e-06,4.560777597362176e-06,-5.985565167065943e-06,16.88582708820343,-10.1885631244812,0.061033106148242894,2.544325980124995e-06,5.022554461220352e-08,4.199156578010843e-08,0.0396728515625,0.0,0.0,0.0,0.0,0.0,0.0,0.0,0.0,0.0,0.0,0.0,0.0,0.0,0.0,0.0,0.0
1754715282099321737,516,1754715282690000000,MoraiInfo,0,-2.141403001587605e-06,4.560777597362176e-06,-5.985565167065943e-06,16.88582708820343,-10.1885631244812,0.061033106148242894,2.544325980124995e-06,5.022554461220352e-08,4.199156578010843e-08,0.0396728515625,0.0,0.0,0.0,0.0,0.0,0.0,0.0,0.0,0.0,0.0,0.0,0.0,0.0,0.0,0.0,0.0
1754715282101387854,517,1754715282726000000,MoraiInfo,0,-3.325151283206651e-06,1.680948912508029e-06,5.179555955692194e-06,16.88582708820343,-10.188563601318359,0.061033102422952595,2.5356207515869755e-06,-9.058890526603136e-09,1.2119924619469202e-08,0.0396728515625,0.0,0.0,0.0,0.0,0.0,0.0,0.0,0.0,0.0,0.0,0.0,0.0,0.0,0.0,0.0,0.0
1754715282146616651,518,1754715282757000000,MoraiInfo,0,1.1896941032318864e-06,-2.9236603040772025e-06,-1.265278388018487e-05,16.88582708820343,-10.1885631244812,0.061033102422952595,2.599454319351935e-06,-2.1368219194073393e-08,-1.0641070247174866e-07,0.0396728515625,0.0,0.0,0.0,0.0,0.0,0.0,0.0,0.0,0.0,0.0,0.0,0.0,0.0,0.0,0.0,0.0
1754715282154472296,519,1754715282757000000,MoraiInfo,0,1.1896941032318864e-06,-2.9236603040772025e-06,-1.265278388018487e-05,16.88582708820343,-10.1885631244812,0.061033102422952595,2.599454319351935e-06,-2.1368219194073393e-08,-1.0641070247174866e-07,0.0396728515625,0.0,0.0,0.0,0.0,0.0,0.0,0.0,0.0,0.0,0.0,0.0,0.0,0.0,0.0,0.0,0.0
1754715282198107733,520,1754715282789000000,MoraiInfo,0,-3.2134698813024443e-06,1.207895820698468e-06,1.1886851098097397e-05,16.88582708820343,-10.1885631244812,0.0610331042855978,2.5351846488774754e-06,2.789713349216072e-09,1.313264306190831e-07,0.0396728515625,0.0,0.0,0.0,0.0,0.0,0.0,0.0,0.0,0.0,0.0,0.0,0.0,0.0,0.0,0.0,0.0
1754715282229361966,521,1754715282825000000,MoraiInfo,0,-4.052340500493301e-06,2.909114755311748e-06,1.7837988707469776e-05,16.88582720741272,-10.1885631244812,0.061033102422952595,2.539578190408065e-06,1.6496521482167736e-08,1.0156336571753857e-07,0.0396728515625,0.0,0.0,0.0,0.0,0.0,0.0,0.0,0.0,0.0,0.0,0.0,0.0,0.0,0.0,0.0,0.0
1754715282229385372,522,1754715282825000000,MoraiInfo,0,-4.052340500493301e-06,2.909114755311748e-06,1.7837988707469776e-05,16.88582720741272,-10.1885631244812,0.061033102422952595,2.539578190408065e-06,1.6496521482167736e-08,1.0156336571753857e-07,0.0396728515625,0.0,0.0,0.0,0.0,0.0,0.0,0.0,0.0,0.0,0.0,0.0,0.0,0.0,0.0,0.0,0.0
1754715282284442075,523,1754715282857000000,MoraiInfo,0,2.5392087081854697e-06,-2.6570448881102493e-06,7.732893436696031e-07,16.88582708820343,-10.1885631244812,0.0610331098735332,2.5903625555656618e-06,-3.664453984697502e-08,1.1702906022037497e-07,0.0396728515625,0.0,0.0,0.0,0.0,0.0,0.0,0.0,0.0,0.0,0.0,0.0,0.0,0.0,0.0,0.0,0.0
1754715282284467874,524,1754715282891000000,MoraiInfo,0,3.922075393347768e-06,-3.360019263709546e-06,-1.932938721438404e-05,16.88582708820343,-10.1885631244812,0.061033102422952595,2.617695372464368e-06,-1.9240856019564493e-08,-2.552373530306795e-07,0.0396728515625,0.0,0.0,0.0,0.0,0.0,0.0,0.0,0.0,0.0,0.0,0.0,0.0,0.0,0.0,0.0,0.0
1754715282294193415,525,1754715282891000000,MoraiInfo,0,3.922075393347768e-06,-3.360019263709546e-06,-1.932938721438404e-05,16.88582708820343,-10.1885631244812,0.061033102422952595,2.617695372464368e-06,-1.9240856019564493e-08,-2.552373530306795e-07,0.0396728515625,0.0,0.0,0.0,0.0,0.0,0.0,0.0,0.0,0.0,0.0,0.0,0.0,0.0,0.0,0.0,0.0
1754715282300427148,526,1754715282924000000,MoraiInfo,0,6.468879291787744e-06,5.330712156137452e-06,-1.1109850674984044e-05,16.88582708820343,-10.1885631244812,0.061033102422952595,2.640942966536386e-06,8.001858020634246e-08,1.3204206616990176e-08,0.0396728515625,0.0,0.0,0.0,0.0,0.0,0.0,0.0,0.0,0.0,0.0,0.0,0.0,0.0,0.0,0.0,0.0
1754715282333522011,527,1754715282960000000,MoraiInfo,0,-6.797454261686653e-06,-8.225693818530999e-06,-6.892437198757763e-08,16.88582708820343,-10.1885631244812,0.061033102422952595,2.504993972252123e-06,-8.449530497500747e-08,1.1825904699946932e-08,0.0396728515625,0.0,0.0,0.0,0.0,0.0,0.0,0.0,0.0,0.0,0.0,0.0,0.0,0.0,0.0,0.0,0.0
1754715282345905957,528,1754715282960000000,MoraiInfo,0,-6.797454261686653e-06,-8.225693818530999e-06,-6.892437198757763e-08,16.88582708820343,-10.1885631244812,0.061033102422952595,2.504993972252123e-06,-8.449530497500747e-08,1.1825904699946932e-08,0.0396728515625,0.0,0.0,0.0,0.0,0.0,0.0,0.0,0.0,0.0,0.0,0.0,0.0,0.0,0.0,0.0,0.0
1754715282375191223,529,1754715282991000000,MoraiInfo,0,-6.946238499949686e-06,-1.1540087143657727e-05,-6.9097424670872e-08,16.88582708820343,-10.1885631244812,0.0610331080108881,2.5047622784768464e-06,-1.237537503584463e-07,1.1840081803882184e-08,0.0396728515625,0.0,0.0,0.0,0.0,0.0,0.0,0.0,0.0,0.0,0.0,0.0,0.0,0.0,0.0,0.0,0.0
1754715282447056067,530,1754715283025000000,MoraiInfo,0,-2.846383722499013e-06,-1.3711874089494812e-05,-1.9397097275941636e-05,16.88582708820343,-10.1885631244812,0.061033102422952595,2.558107780714636e-06,-1.286261408495193e-07,-2.558255971507606e-07,0.0396728515625,0.0,0.0,0.0,0.0,0.0,0.0,0.0,0.0,0.0,0.0,0.0,0.0,0.0,0.0,0.0,0.0
1754715282449284430,531,1754715283025000000,MoraiInfo,0,-2.846383722499013e-06,-1.3711874089494812e-05,-1.9397097275941636e-05,16.88582708820343,-10.1885631244812,0.061033102422952595,2.558107780714636e-06,-1.286261408495193e-07,-2.558255971507606e-07,0.0396728515625,0.0,0.0,0.0,0.0,0.0,0.0,0.0,0.0,0.0,0.0,0.0,0.0,0.0,0.0,0.0,0.0
1754715282455197244,532,1754715283059000000,MoraiInfo,0,3.465229383436963e-07,1.3726433280680794e-05,2.4586151994299144e-05,16.88582708820343,-10.1885631244812,0.0610330968350172,2.565038357715821e-06,1.459024758787564e-07,2.3589754505337626e-07,0.0396728515625,0.0,0.0,0.0,0.0,0.0,0.0,0.0,0.0,0.0,0.0,0.0,0.0,0.0,0.0,0.0,0.0
1754715282508496284,533,1754715283091000000,MoraiInfo,0,-2.7535788831301038e-06,1.5701980373705737e-05,1.933657404151745e-05,16.88582708820343,-10.1885631244812,0.061033102422952595,2.5375804852956207e-06,1.5990403312571289e-07,2.3559897499580987e-07,0.0396728515625,0.0,0.0,0.0,0.0,0.0,0.0,0.0,0.0,0.0,0.0,0.0,0.0,0.0,0.0,0.0,0.0
1754715282511683954,534,1754715283091000000,MoraiInfo,0,-2.7535788831301038e-06,1.5701980373705737e-05,1.933657404151745e-05,16.88582708820343,-10.1885631244812,0.061033102422952595,2.5375804852956207e-06,1.5990403312571289e-07,2.3559897499580987e-07,0.0396728515625,0.0,0.0,0.0,0.0,0.0,0.0,0.0,0.0,0.0,0.0,0.0,0.0,0.0,0.0,0.0,0.0
1754715282518255348,535,1754715283125000000,MoraiInfo,0,-2.2507938410853967e-06,1.2783969395968596e-05,1.1147072655148804e-05,16.88582720741272,-10.1885631244812,0.0610331005603075,2.5602294044801965e-06,1.0988694754132666e-07,8.684149577220523e-08,0.0396728515625,0.0,0.0,0.0,0.0,0.0,0.0,0.0,0.0,0.0,0.0,0.0,0.0,0.0,0.0,0.0,0.0
1754715282569937735,536,1754715283159000000,MoraiInfo,0,1.8306691345060244e-06,1.008542676572688e-05,1.5205454673150598e-08,16.88582708820343,-10.1885631244812,0.061033106148242894,2.5937326881830813e-06,1.1182451231661616e-07,-1.7116281725293447e-08,0.0396728515625,0.0,0.0,0.0,0.0,0.0,0.0,0.0,0.0,0.0,0.0,0.0,0.0,0.0,0.0,0.0,0.0
1754715282577256891,537,1754715283160000000,MoraiInfo,0,1.8306691345060244e-06,1.008542676572688e-05,1.5205454673150598e-08,16.88582708820343,-10.1885631244812,0.061033106148242894,2.5937326881830813e-06,1.1182451231661616e-07,-1.7116281725293447e-08,0.0396728515625,0.0,0.0,0.0,0.0,0.0,0.0,0.0,0.0,0.0,0.0,0.0,0.0,0.0,0.0,0.0,0.0
1754715282577282807,538,1754715283193000000,MoraiInfo,0,-8.328906915266998e-07,-1.4153503798297606e-05,1.2663863344641868e-05,16.88582696899414,-10.1885631244812,0.0610331080108881,2.5770750653464347e-06,-1.712457020630609e-07,2.361609006129584e-07,0.0396728515625,0.0,0.0,0.0,0.0,0.0,0.0,0.0,0.0,0.0,0.0,0.0,0.0,0.0,0.0,0.0,0.0
1754715282647908566,539,1754715283225000000,MoraiInfo,0,4.262265065335669e-06,-1.7162001313408837e-05,-1.931988117576111e-05,16.88582720741272,-10.188562647644043,0.0610330986976623,2.620875420689117e-06,-1.663472346535855e-07,-2.55140776062035e-07,0.0396728515625,0.0,0.0,0.0,0.0,0.0,0.0,0.0,0.0,0.0,0.0,0.0,0.0,0.0,0.0,0.0,0.0
1754715282665723507,540,1754715283225000000,MoraiInfo,0,4.262265065335669e-06,-1.7162001313408837e-05,-1.931988117576111e-05,16.88582720741272,-10.188562647644043,0.0610330986976623,2.620875420689117e-06,-1.663472346535855e-07,-2.55140776062035e-07,0.0396728515625,0.0,0.0,0.0,0.0,0.0,0.0,0.0,0.0,0.0,0.0,0.0,0.0,0.0,0.0,0.0,0.0
1754715282668477239,541,1754715283259000000,MoraiInfo,0,5.688483724952675e-06,-1.718881685519591e-05,-5.892864919587737e-06,16.88582708820343,-10.1885631244812,0.0610331042855978,2.627885351103032e-06,-1.6325114415849384e-07,-1.6635169686196605e-08,0.0396728515625,0.0,0.0,0.0,0.0,0.0,0.0,0.0,0.0,0.0,0.0,0.0,0.0,0.0,0.0,0.0,0.0
1754715282676643708,542,1754715283294000000,MoraiInfo,0,-4.470133717404679e-06,1.4532710338244216e-05,5.906974820391042e-06,16.88582696899414,-10.1885631244812,0.0610331080108881,2.5384827040397795e-06,1.274029699516177e-07,1.0150439777589781e-07,0.0396728515625,0.0,0.0,0.0,0.0,0.0,0.0,0.0,0.0,0.0,0.0,0.0,0.0,0.0,0.0,0.0,0.0
1754715282701828641,543,1754715283294000000,MoraiInfo,0,-4.470133717404679e-06,1.4532710338244216e-05,5.906974820391042e-06,16.88582696899414,-10.1885631244812,0.0610331080108881,2.5384827040397795e-06,1.274029699516177e-07,1.0150439777589781e-07,0.0396728515625,0.0,0.0,0.0,0.0,0.0,0.0,0.0,0.0,0.0,0.0,0.0,0.0,0.0,0.0,0.0,0.0
1754715282777209530,544,1754715283327000000,MoraiInfo,0,-1.3813641999149695e-06,1.2458436685847118e-05,1.1156475011375733e-05,16.88582708820343,-10.188563601318359,0.0610331042855978,2.566944431237061e-06,1.1242242692333093e-07,7.200998908274414e-08,0.0396728515625,0.0,0.0,0.0,0.0,0.0,0.0,0.0,0.0,0.0,0.0,0.0,0.0,0.0,0.0,0.0,0.0
1754715282782343107,545,1754715283359000000,MoraiInfo,0,1.4839597497484649e-06,8.670345778227784e-06,-5.948687885393156e-06,16.88582720741272,-10.1885631244812,0.0610331005603075,2.5841120532277277e-06,8.328320433292903e-08,-3.210874766068628e-08,0.0396728515625,0.0,0.0,0.0,0.0,0.0,0.0,0.0,0.0,0.0,0.0,0.0,0.0,0.0,0.0,0.0,0.0
1754715282789656518,546,1754715283360000000,MoraiInfo,0,1.4839597497484649e-06,8.670345778227784e-06,-5.948687885393156e-06,16.88582720741272,-10.1885631244812,0.0610331005603075,2.5841120532277277e-06,8.328320433292903e-08,-3.210874766068628e-08,0.0396728515625,0.0,0.0,0.0,0.0,0.0,0.0,0.0,0.0,0.0,0.0,0.0,0.0,0.0,0.0,0.0,0.0
1754715282822950492,547,1754715283396000000,MoraiInfo,0,-1.352468188997591e-06,-8.093725227809045e-06,-1.0961227481232072e-08,16.88582696899414,-10.1885631244812,0.061033094972372,2.557062316554948e-06,-7.859117090447398e-08,-3.2327900356676764e-08,0.0396728515625,0.0,0.0,0.0,0.0,0.0,0.0,0.0,0.0,0.0,0.0,0.0,0.0,0.0,0.0,0.0,0.0
1754715282841343325,548,1754715283428000000,MoraiInfo,0,-2.7575254080147715e-06,-4.744136276713107e-06,5.138456981512718e-05,16.88582720741272,-10.1885631244812,0.0610330986976623,2.543242771935184e-06,-3.5722479196920176e-08,7.275090752045799e-07,0.0396728515625,0.0,0.0,0.0,0.0,0.0,0.0,0.0,0.0,0.0,0.0,0.0,0.0,0.0,0.0,0.0,0.0
1754715282846541895,549,1754715283428000000,MoraiInfo,0,-2.7575254080147715e-06,-4.744136276713107e-06,5.138456981512718e-05,16.88582720741272,-10.1885631244812,0.0610330986976623,2.543242771935184e-06,-3.5722479196920176e-08,7.275090752045799e-07,0.0396728515625,0.0,0.0,0.0,0.0,0.0,0.0,0.0,0.0,0.0,0.0,0.0,0.0,0.0,0.0,0.0,0.0
1754715282887209859,550,1754715283464000000,MoraiInfo,0,-4.781722964253277e-06,-1.1952681688853772e-06,4.1675182728795335e-05,16.88582708820343,-10.1885631244812,0.061033106148242894,2.514172138035065e-06,1.8145782654244158e-09,3.695350585530832e-07,0.0396728515625,0.0,0.0,0.0,0.0,0.0,0.0,0.0,0.0,0.0,0.0,0.0,0.0,0.0,0.0,0.0,0.0
1754715282889566577,551,1754715283495000000,MoraiInfo,0,5.8124442148255184e-06,6.936703016435786e-07,-3.0487479307339527e-05,16.88582708820343,-10.1885631244812,0.0610331080108881,2.6304207949578995e-06,1.568801621942839e-08,-2.4021454692046973e-07,0.0396728515625,0.0,0.0,0.0,0.0,0.0,0.0,0.0,0.0,0.0,0.0,0.0,0.0,0.0,0.0,0.0,0.0
1754715282894696897,552,1754715283495000000,MoraiInfo,0,5.8124442148255184e-06,6.936703016435786e-07,-3.0487479307339527e-05,16.88582708820343,-10.1885631244812,0.0610331080108881,2.6304207949578995e-06,1.568801621942839e-08,-2.4021454692046973e-07,0.0396728515625,0.0,0.0,0.0,0.0,0.0,0.0,0.0,0.0,0.0,0.0,0.0,0.0,0.0,0.0,0.0,0.0
1754715282929460040,553,1754715283528000000,MoraiInfo,0,3.854615897580516e-06,-6.114608481766481e-07,-1.7841077351476997e-05,16.88582708820343,-10.1885631244812,0.0610331042855978,2.610217961773742e-06,-1.6883001663359213e-08,-1.0629787539073733e-07,0.0396728515625,0.0,0.0,0.0,0.0,0.0,0.0,0.0,0.0,0.0,0.0,0.0,0.0,0.0,0.0,0.0,0.0
1754715282942738739,554,1754715283561000000,MoraiInfo,0,3.260150833739317e-06,5.325560437086096e-07,-1.9338100173627023e-05,16.88582696899414,-10.1885631244812,0.0610330968350172,2.597491629785509e-06,1.434017704582402e-08,-2.5546688675603946e-07,0.0396728515625,0.0,0.0,0.0,0.0,0.0,0.0,0.0,0.0,0.0,0.0,0.0,0.0,0.0,0.0,0.0,0.0
1754715282945354638,555,1754715283561000000,MoraiInfo,0,3.260150833739317e-06,5.325560437086096e-07,-1.9338100173627023e-05,16.88582696899414,-10.1885631244812,0.0610330968350172,2.597491629785509e-06,1.434017704582402e-08,-2.5546688675603946e-07,0.0396728515625,0.0,0.0,0.0,0.0,0.0,0.0,0.0,0.0,0.0,0.0,0.0,0.0,0.0,0.0,0.0,0.0
1754715283003595472,556,1754715283596000000,MoraiInfo,0,-2.573205165390391e-06,-1.0882689593927353e-06,3.1267263693735003e-05,16.88582708820343,-10.1885631244812,0.0610331042855978,2.5460276447120123e-06,-7.425317249953878e-09,3.698783928030025e-07,0.0396728515625,0.0,0.0,0.0,0.0,0.0,0.0,0.0,0.0,0.0,0.0,0.0,0.0,0.0,0.0,0.0,0.0
1754715283014561781,557,1754715283630000000,MoraiInfo,0,-1.1154959338455228e-06,-2.466442310833372e-06,5.204868557484588e-06,16.88582708820343,-10.1885631244812,0.061033106148242894,2.566971261330764e-06,-4.0913743504233935e-08,1.2467601173682397e-08,0.0396728515625,0.0,0.0,0.0,0.0,0.0,0.0,0.0,0.0,0.0,0.0,0.0,0.0,0.0,0.0,0.0,0.0
1754715283014597477,558,1754715283630000000,MoraiInfo,0,-1.1154959338455228e-06,-2.466442310833372e-06,5.204868557484588e-06,16.88582708820343,-10.1885631244812,0.061033106148242894,2.566971261330764e-06,-4.0913743504233935e-08,1.2467601173682397e-08,0.0396728515625,0.0,0.0,0.0,0.0,0.0,0.0,0.0,0.0,0.0,0.0,0.0,0.0,0.0,0.0,0.0,0.0
1754715283072351180,559,1754715283662000000,MoraiInfo,0,1.3236647191661175e-06,-1.2577528423207696e-06,1.4640352929973233e-08,16.88582708820343,-10.1885631244812,0.061033102422952595,2.5916633603628725e-06,-7.756694841987155e-09,1.2716601105466909e-08,0.0396728515625,0.0,0.0,0.0,0.0,0.0,0.0,0.0,0.0,0.0,0.0,0.0,0.0,0.0,0.0,0.0,0.0
1754715283117006601,560,1754715283694000000,MoraiInfo,0,-1.8281164102518237e-06,2.217409701188444e-06,-2.042491864528984e-08,16.88582708820343,-10.188562647644043,0.061033106148242894,2.5551009912305744e-06,3.659155112245571e-08,1.23080683422927e-08,0.0396728515625,0.0,0.0,0.0,0.0,0.0,0.0,0.0,0.0,0.0,0.0,0.0,0.0,0.0,0.0,0.0,0.0
1754715283117065071,561,1754715283694000000,MoraiInfo,0,-1.8281164102518237e-06,2.217409701188444e-06,-2.042491864528984e-08,16.88582708820343,-10.188562647644043,0.061033106148242894,2.5551009912305744e-06,3.659155112245571e-08,1.23080683422927e-08,0.0396728515625,0.0,0.0,0.0,0.0,0.0,0.0,0.0,0.0,0.0,0.0,0.0,0.0,0.0,0.0,0.0,0.0
1754715283120882023,562,1754715283729000000,MoraiInfo,0,9.954328561434522e-07,1.2952456017956138e-05,-1.340672497462947e-05,16.88582720741272,-10.188562647644043,0.061033102422952595,2.590260010038037e-06,1.503687911963425e-07,-2.705039605643833e-07,0.0396728515625,0.0,0.0,0.0,0.0,0.0,0.0,0.0,0.0,0.0,0.0,0.0,0.0,0.0,0.0,0.0,0.0
1754715283179004216,563,1754715283761000000,MoraiInfo,0,2.845314156729728e-06,1.4109441508480812e-05,-4.244642332196236e-05,16.88582708820343,-10.188562647644043,0.0610330986976623,2.605142981337849e-06,1.274009946428123e-07,-3.597476450067916e-07,0.0396728515625,0.0,0.0,0.0,0.0,0.0,0.0,0.0,0.0,0.0,0.0,0.0,0.0,0.0,0.0,0.0,0.0
1754715283179813188,564,1754715283761000000,MoraiInfo,0,2.845314156729728e-06,1.4109441508480812e-05,-4.244642332196236e-05,16.88582708820343,-10.188562647644043,0.0610330986976623,2.605142981337849e-06,1.274009946428123e-07,-3.597476450067916e-07,0.0396728515625,0.0,0.0,0.0,0.0,0.0,0.0,0.0,0.0,0.0,0.0,0.0,0.0,0.0,0.0,0.0,0.0
1754715283180074125,565,1754715283795000000,MoraiInfo,0,-3.6501005524769434e-06,-1.0571673556114549e-05,2.3063725166139196e-05,16.88582708820343,-10.1885631244812,0.061033102422952595,2.5321410248579923e-06,-8.403231532838619e-08,1.0152690066433935e-07,0.0396728515625,0.0,0.0,0.0,0.0,0.0,0.0,0.0,0.0,0.0,0.0,0.0,0.0,0.0,0.0,0.0,0.0
1754715283231470777,566,1754715283830000000,MoraiInfo,0,-1.314649580308469e-06,-6.762324119335972e-06,7.339751846302534e-07,16.88582708820343,-10.1885631244812,0.061033102422952595,2.5643439585110173e-06,-5.060930519107387e-08,1.3165984569241118e-07,0.0396728515625,0.0,0.0,0.0,0.0,0.0,0.0,0.0,0.0,0.0,0.0,0.0,0.0,0.0,0.0,0.0,0.0
1754715283294016414,567,1754715283830000000,MoraiInfo,0,-1.314649580308469e-06,-6.762324119335972e-06,7.339751846302534e-07,16.88582708820343,-10.1885631244812,0.061033102422952595,2.5643439585110173e-06,-5.060930519107387e-08,1.3165984569241118e-07,0.0396728515625,0.0,0.0,0.0,0.0,0.0,0.0,0.0,0.0,0.0,0.0,0.0,0.0,0.0,0.0,0.0,0.0
1754715283295907290,568,1754715283862000000,MoraiInfo,0,-8.359597813978327e-08,2.430413815091015e-06,3.0547191272489727e-05,16.88582708820343,-10.1885631244812,0.061033106148242894,2.5793115128180943e-06,3.659333458472247e-08,3.5531226671992044e-07,0.0396728515625,0.0,0.0,0.0,0.0,0.0,0.0,0.0,0.0,0.0,0.0,0.0,0.0,0.0,0.0,0.0,0.0
1754715283296169836,569,1754715283894000000,MoraiInfo,0,-1.4136658137431368e-06,-5.790803697891533e-06,-2.981661236844957e-05,16.88582708820343,-10.1885631244812,0.0610331042855978,2.5510382783977548e-06,-7.922270128801756e-08,-2.410199329005991e-07,0.0396728515625,0.0,0.0,0.0,0.0,0.0,0.0,0.0,0.0,0.0,0.0,0.0,0.0,0.0,0.0,0.0,0.0
1754715283297548374,570,1754715283894000000,MoraiInfo,0,-1.4136658137431368e-06,-5.790803697891533e-06,-2.981661236844957e-05,16.88582708820343,-10.1885631244812,0.0610331042855978,2.5510382783977548e-06,-7.922270128801756e-08,-2.410199329005991e-07,0.0396728515625,0.0,0.0,0.0,0.0,0.0,0.0,0.0,0.0,0.0,0.0,0.0,0.0,0.0,0.0,0.0,0.0
1754715283331321014,571,1754715283927000000,MoraiInfo,0,-2.770779246930033e-06,-1.0183395716012456e-05,-5.24088682141155e-06,16.88582696899414,-10.188563601318359,0.061033102422952595,2.53902408076101e-06,-9.268293155173525e-08,-2.7100892641129803e-09,0.0396728515625,0.0,0.0,0.0,0.0,0.0,0.0,0.0,0.0,0.0,0.0,0.0,0.0,0.0,0.0,0.0,0.0
1754715283380390049,572,1754715283964000000,MoraiInfo,0,-2.1982014004606758e-06,-1.2749756933772003e-05,1.7864422261482105e-05,16.88582708820343,-10.1885631244812,0.061033102422952595,2.558019559728564e-06,-1.4774151679830538e-07,2.0614386642137106e-07,0.0396728515625,0.0,0.0,0.0,0.0,0.0,0.0,0.0,0.0,0.0,0.0,0.0,0.0,0.0,0.0,0.0,0.0
1754715283380453346,573,1754715283964000000,MoraiInfo,0,-2.1982014004606758e-06,-1.2749756933772003e-05,1.7864422261482105e-05,16.88582708820343,-10.1885631244812,0.061033102422952595,2.558019559728564e-06,-1.4774151679830538e-07,2.0614386642137106e-07,0.0396728515625,0.0,0.0,0.0,0.0,0.0,0.0,0.0,0.0,0.0,0.0,0.0,0.0,0.0,0.0,0.0,0.0
1754715283381008172,574,1754715283995000000,MoraiInfo,0,-4.700741556007415e-07,-1.1972229003731629e-05,6.705997293465771e-06,16.88582696899414,-10.188563601318359,0.0610331080108881,2.559397671575425e-06,-1.0645057813007953e-07,1.1672896960135405e-07,0.0396728515625,0.0,0.0,0.0,0.0,0.0,0.0,0.0,0.0,0.0,0.0,0.0,0.0,0.0,0.0,0.0,0.0
1754715283456585385,575,1754715284030000000,MoraiInfo,0,2.365580257901456e-06,1.174831049866043e-05,-1.935241562023293e-05,16.88582708820343,-10.188562647644043,0.0610330986976623,2.606709585961653e-06,1.2851572250838217e-07,-2.703193331399234e-07,0.0396728515625,0.0,0.0,0.0,0.0,0.0,0.0,0.0,0.0,0.0,0.0,0.0,0.0,0.0,0.0,0.0,0.0
1754715283477424056,576,1754715284030000000,MoraiInfo,0,2.365580257901456e-06,1.174831049866043e-05,-1.935241562023293e-05,16.88582708820343,-10.188562647644043,0.0610330986976623,2.606709585961653e-06,1.2851572250838217e-07,-2.703193331399234e-07,0.0396728515625,0.0,0.0,0.0,0.0,0.0,0.0,0.0,0.0,0.0,0.0,0.0,0.0,0.0,0.0,0.0,0.0
1754715283477451374,577,1754715284062000000,MoraiInfo,0,1.1054926289943978e-06,1.7191903680213727e-05,1.9377057469682768e-05,16.88582696899414,-10.1885631244812,0.061033102422952595,2.567928049757029e-06,1.8104844912159026e-07,3.402273307528958e-07,0.0396728515625,0.0,0.0,0.0,0.0,0.0,0.0,0.0,0.0,0.0,0.0,0.0,0.0,0.0,0.0,0.0,0.0
1754715283481265163,578,1754715284095000000,MoraiInfo,0,3.4880213206633925e-07,-1.7254948033951223e-05,-1.7871341697173193e-05,16.88582720741272,-10.1885631244812,0.061033106148242894,2.5749038741196277e-06,-1.640505189470787e-07,-1.7199464963368882e-08,0.0396728515625,0.0,0.0,0.0,0.0,0.0,0.0,0.0,0.0,0.0,0.0,0.0,0.0,0.0,0.0,0.0,0.0
1754715283510831125,579,1754715284095000000,MoraiInfo,0,3.4880213206633925e-07,-1.7254948033951223e-05,-1.7871341697173193e-05,16.88582720741272,-10.1885631244812,0.061033106148242894,2.5749038741196277e-06,-1.640505189470787e-07,-1.7199464963368882e-08,0.0396728515625,0.0,0.0,0.0,0.0,0.0,0.0,0.0,0.0,0.0,0.0,0.0,0.0,0.0,0.0,0.0,0.0
1754715283535503051,580,1754715284130000000,MoraiInfo,0,2.553219019318931e-06,-1.7208949429914355e-05,-1.2632168363779783e-05,16.88582696899414,-10.1885631244812,0.061033102422952595,2.6068682927871123e-06,-1.6236782585110634e-07,-1.5097764105576061e-07,0.0396728515625,1.0,0.0,0.0,0.0,0.0,0.0,0.0,0.0,0.0,0.0,0.0,0.0,0.0,0.0,0.0,0.0
1754715283553131873,581,1754715284163000000,MoraiInfo,0,4.3924264900852e-06,-1.6644007700961083e-05,-5.906907972530462e-06,16.88622584327698,-10.188563601318359,0.0609334509074687,2.619005044834921e-06,-1.7592955714462732e-07,-3.162648809507118e-08,0.03997802734375,0.0,0.0,0.0,0.0,0.0,0.0,0.0,0.0,0.0,0.0,0.0,0.0,0.0,0.0,0.0,0.0
1754715283576495070,582,1754715284163000000,MoraiInfo,0,4.3924264900852e-06,-1.6644007700961083e-05,-5.906907972530462e-06,16.88622584327698,-10.188563601318359,0.0609334509074687,2.619005044834921e-06,-1.7592955714462732e-07,-3.162648809507118e-08,0.03997802734375,0.0,0.0,0.0,0.0,0.0,0.0,0.0,0.0,0.0,0.0,0.0,0.0,0.0,0.0,0.0,0.0
1754715283588710733,583,1754715284197000000,MoraiInfo,0,5.054449558258057,-0.0001227399334311,0.0357530154287815,16.89102044090271,-10.188569323364257,0.0604477401077747,0.1010916084051132,-2.6310153771191835e-06,0.0007150192395783,0.043792724609375,0.0,0.0,0.0,0.0,0.0,0.0,0.0,0.0,0.0,0.0,0.0,0.0,0.0,0.0,0.0,0.0
1754715283618324012,584,1754715284230000000,MoraiInfo,0,2.8610668182373047,0.0001250756904482,-0.1238107979297638,16.89930000289917,-10.18857123071289,0.060368704348802496,0.2347269803285598,-2.649117959663272e-06,0.0012889169156551,0.04742431640625,0.0,0.0,0.0,0.0,0.0,0.0,0.0,0.0,0.0,0.0,0.0,0.0,0.0,0.0,0.0,0.0
1754715283618347639,585,1754715284230000000,MoraiInfo,0,2.8610668182373047,0.0001250756904482,-0.1238107979297638,16.89930000289917,-10.18857123071289,0.060368704348802496,0.2347269803285598,-2.649117959663272e-06,0.0012889169156551,0.04742431640625,0.0,0.0,0.0,0.0,0.0,0.0,0.0,0.0,0.0,0.0,0.0,0.0,0.0,0.0,0.0,0.0
1754715283658880874,586,1754715284263000000,MoraiInfo,0,-0.8646560907363892,-0.0012591776903718,-0.0536656640470027,16.908213519897462,-10.188567416015625,0.0606286625564098,0.2485983222723007,-8.516202797181904e-06,0.001365341246128,0.048919677734375,0.0,0.0,0.0,0.0,0.0,0.0,0.0,0.0,0.0,0.0,0.0,0.0,0.0,0.0,0.0,0.0
1754715283662215014,587,1754715284297000000,MoraiInfo,0,0.1809466034173965,0.001140251639299,-0.0404452495276927,16.91551151260376,-10.188561693969726,0.060743878334760595,0.2522168755531311,1.3461423804983497e-05,0.0006241221562959,0.049468994140625,0.0,0.0,0.0,0.0,0.0,0.0,0.0,0.0,0.0,0.0,0.0,0.0,0.0,0.0,0.0,0.0
1754715283682356822,588,1754715284297000000,MoraiInfo,0,0.1809466034173965,0.001140251639299,-0.0404452495276927,16.91551151260376,-10.188561693969726,0.060743878334760595,0.2522168755531311,1.3461423804983497e-05,0.0006241221562959,0.049468994140625,0.0,0.0,0.0,0.0,0.0,0.0,0.0,0.0,0.0,0.0,0.0,0.0,0.0,0.0,0.0,0.0
1754715283711022640,589,1754715284332000000,MoraiInfo,0,-0.0794761627912521,0.0003502496692817,-0.0424037985503673,16.924007677879334,-10.188555018249511,0.0608415926992893,0.2442873269319534,5.464578862302005e-06,0.0014270456740632,0.049835205078125,0.0,0.0,0.0,0.0,0.0,0.0,0.0,0.0,0.0,0.0,0.0,0.0,0.0,0.0,0.0,0.0
1754715283722624458,590,1754715284362000000,MoraiInfo,0,-0.1276407241821289,0.0001718607818474,-0.0152321932837367,16.932302856292726,-10.188548342529296,0.060916308984160394,0.2373398542404174,3.1146337278187275e-06,0.001929142861627,0.05010986328125,1.0,0.0,0.0,0.0,0.0,0.0,0.0,0.0,0.0,0.0,0.0,0.0,0.0,0.0,0.0,0.0
1754715283763317275,591,1754715284362000000,MoraiInfo,0,-0.1276407241821289,0.0001718607818474,-0.0152321932837367,16.932302856292726,-10.188548342529296,0.060916308984160394,0.2373398542404174,3.1146337278187275e-06,0.001929142861627,0.05010986328125,1.0,0.0,0.0,0.0,0.0,0.0,0.0,0.0,0.0,0.0,0.0,0.0,0.0,0.0,0.0,0.0
1754715283816138274,592,1754715284399000000,MoraiInfo,0,-0.1762336492538452,-0.0001137514191213,0.0112055670469999,16.939454936828614,-10.18854214364624,0.0609644378721714,0.2338145822286605,3.029126673936844e-07,0.0022254332434386,0.050262451171875,1.0,0.0,0.0,0.0,0.0,0.0,0.0,0.0,0.0,0.0,0.0,0.0,0.0,0.0,0.0,0.0
1754715283816157957,593,1754715284430000000,MoraiInfo,0,4.918770790100098,-2.589775249361992e-05,0.0385376662015914,16.952796840515138,-10.18853928262329,0.0604316021502017,0.329385370016098,-4.513567546382546e-06,0.0021408144384622,0.05426025390625,1.0,0.0,0.0,0.0,0.0,0.0,0.0,0.0,0.0,0.0,0.0,0.0,0.0,0.0,0.0,0.0
1754715283816180155,594,1754715284430000000,MoraiInfo,0,4.918770790100098,-2.589775249361992e-05,0.0385376662015914,16.952796840515138,-10.18853928262329,0.0604316021502017,0.329385370016098,-4.513567546382546e-06,0.0021408144384622,0.05426025390625,1.0,0.0,0.0,0.0,0.0,0.0,0.0,0.0,0.0,0.0,0.0,0.0,0.0,0.0,0.0,0.0
1754715283884914800,595,1754715284464000000,MoraiInfo,0,3.7641310691833496,0.0026779752224683,-0.1210139766335487,16.966968560066224,-10.188537375274658,0.0601841665059328,0.477938711643219,3.736658254638314e-05,0.0021167723461985,0.05999755859375,1.0,0.0,0.0,0.0,0.0,0.0,0.0,0.0,0.0,0.0,0.0,0.0,0.0,0.0,0.0,0.0
1754715283886103554,596,1754715284497000000,MoraiInfo,0,3.997387409210205,0.0045764138922095,-0.0097192861139774,16.991129541244508,-10.188532606903076,0.0599484487622976,0.6425454020500183,9.954802226275206e-05,0.0021881049033254,0.071044921875,0.0,0.0,0.0,0.0,0.0,0.0,0.0,0.0,0.0,0.0,0.0,0.0,0.0,0.0,0.0,0.0
1754715283886133113,597,1754715284497000000,MoraiInfo,0,3.997387409210205,0.0045764138922095,-0.0097192861139774,16.991129541244508,-10.188532606903076,0.0599484487622976,0.6425454020500183,9.954802226275206e-05,0.0021881049033254,0.071044921875,0.0,0.0,0.0,0.0,0.0,0.0,0.0,0.0,0.0,0.0,0.0,0.0,0.0,0.0,0.0,0.0
1754715283925503166,598,1754715284531000000,MoraiInfo,0,3.9075982570648193,0.0048815077170729,-0.0048405737616121,17.013850593414308,-10.188522593322753,0.0598337563872337,0.7206987142562866,0.000119803356938,0.0016710804775357,0.08135986328125,0.0,0.0,0.0,0.0,0.0,0.0,0.0,0.0,0.0,0.0,0.0,0.0,0.0,0.0,0.0,0.0
1754715283969550009,599,1754715284563000000,MoraiInfo,0,3.639494419097901,0.0046696178615093,-0.0002627420471981,17.040755057182313,-10.18850208932495,0.059814874753355896,0.8713567852973938,0.0001322370953857,0.0011078352108597,0.09197998046875,0.0,0.0,0.0,0.0,0.0,0.0,0.0,0.0,0.0,0.0,0.0,0.0,0.0,0.0,0.0,0.0
1754715284012776645,600,1754715284563000000,MoraiInfo,0,3.639494419097901,0.0046696178615093,-0.0002627420471981,17.040755057182313,-10.18850208932495,0.059814874753355896,0.8713567852973938,0.0001322370953857,0.0011078352108597,0.09197998046875,0.0,0.0,0.0,0.0,0.0,0.0,0.0,0.0,0.0,0.0,0.0,0.0,0.0,0.0,0.0,0.0
1754715284019778638,601,1754715284596000000,MoraiInfo,0,2.021737575531006,-0.000598803628236,-0.0057148807682096,17.070710086669923,-10.188461558166503,0.0601806256175041,0.9117902517318726,3.176403697580099e-05,0.0017765590455383,0.096282958984375,1.0,0.0,0.0,0.0,0.0,0.0,0.0,0.0,0.0,0.0,0.0,0.0,0.0,0.0,0.0,0.0
1754715284022992261,602,1754715284630000000,MoraiInfo,0,-1.682976245880127,-0.0013951607979834,-0.0509992241859436,17.099451565589906,-10.18842007333374,0.0603015187382698,0.8677695989608765,-2.649961970746517e-06,0.0039479122497141,0.099639892578125,1.0,0.0,0.0,0.0,0.0,0.0,0.0,0.0,0.0,0.0,0.0,0.0,0.0,0.0,0.0,0.0
1754715284054228544,603,1754715284631000000,MoraiInfo,0,-1.682976245880127,-0.0013951607979834,-0.0509992241859436,17.099451565589906,-10.18842007333374,0.0603015187382698,0.8677695989608765,-2.649961970746517e-06,0.0039479122497141,0.099639892578125,1.0,0.0,0.0,0.0,0.0,0.0,0.0,0.0,0.0,0.0,0.0,0.0,0.0,0.0,0.0,0.0
1754715284077848625,604,1754715284663000000,MoraiInfo,0,3.463639736175537,0.0010603656992316,0.197639524936676,17.134036683883668,-10.188373343292236,0.060100116506218895,1.0225592851638794,-5.028513260185719e-05,0.00603319844231,0.105804443359375,1.0,0.0,0.0,0.0,0.0,0.0,0.0,0.0,0.0,0.0,0.0,0.0,0.0,0.0,0.0,0.0
1754715284090232434,605,1754715284699000000,MoraiInfo,0,3.4078967571258545,0.0047875745221972,-0.1271504759788513,17.172274255599977,-10.188320891204834,0.0599592036753892,1.0907212495803833,-3.886106424033642e-05,0.0027453531511127,0.11444091796875,0.0,0.0,0.0,0.0,0.0,0.0,0.0,0.0,0.0,0.0,0.0,0.0,0.0,0.0,0.0,0.0
1754715284105552165,606,1754715284699000000,MoraiInfo,0,3.4078967571258545,0.0047875745221972,-0.1271504759788513,17.172274255599977,-10.188320891204834,0.0599592036753892,1.0907212495803833,-3.886106424033642e-05,0.0027453531511127,0.11444091796875,0.0,0.0,0.0,0.0,0.0,0.0,0.0,0.0,0.0,0.0,0.0,0.0,0.0,0.0,0.0,0.0
1754715284167706428,607,1754715284730000000,MoraiInfo,0,3.383603572845459,0.0055077513679862,-0.0148865533992648,17.216907882537843,-10.188249842468261,0.0599361124634742,1.2296119928359983,-3.774533979594708e-05,0.0026976747903972,0.12359619140625,0.0,0.0,0.0,0.0,0.0,0.0,0.0,0.0,0.0,0.0,0.0,0.0,0.0,0.0,0.0,0.0
1754715284171033000,608,1754715284764000000,MoraiInfo,0,0.4369034171104431,0.0017884455155581,-0.0197655986994504,17.255693578567506,-10.188175455871582,0.0602539933472871,1.2914061546325684,-6.214156746864319e-05,0.0047424286603927,0.1278076171875,0.0,0.0,0.0,0.0,0.0,0.0,0.0,0.0,0.0,0.0,0.0,0.0,0.0,0.0,0.0,0.0
1754715284171114513,609,1754715284764000000,MoraiInfo,0,0.4369034171104431,0.0017884455155581,-0.0197655986994504,17.255693578567506,-10.188175455871582,0.0602539933472871,1.2914061546325684,-6.214156746864319e-05,0.0047424286603927,0.1278076171875,0.0,0.0,0.0,0.0,0.0,0.0,0.0,0.0,0.0,0.0,0.0,0.0,0.0,0.0,0.0,0.0
1754715284231458704,610,1754715284797000000,MoraiInfo,0,-2.466278553009033,0.002499580848962,-0.0651870518922805,17.297694110717774,-10.188089148345947,0.060682392418384495,1.2420607805252075,-4.930514842271805e-05,0.0073063932359218,0.130401611328125,0.0,0.0,0.0,0.0,0.0,0.0,0.0,0.0,0.0,0.0,0.0,0.0,0.0,0.0,0.0,0.0
1754715284231513530,611,1754715284830000000,MoraiInfo,0,-1.9269827604293823,0.0019730709027498,0.0647892355918884,17.33791735157013,-10.18800331765747,0.060999436974525395,1.1770858764648438,-4.209484905004501e-05,0.011176697909832,0.132568359375,0.0,0.0,0.0,0.0,0.0,0.0,0.0,0.0,0.0,0.0,0.0,0.0,0.0,0.0,0.0,0.0
1754715284231535614,612,1754715284830000000,MoraiInfo,0,-1.9269827604293823,0.0019730709027498,0.0647892355918884,17.33791735157013,-10.18800331765747,0.060999436974525395,1.1770858764648438,-4.209484905004501e-05,0.011176697909832,0.132568359375,0.0,0.0,0.0,0.0,0.0,0.0,0.0,0.0,0.0,0.0,0.0,0.0,0.0,0.0,0.0,0.0
1754715284275573588,613,1754715284863000000,MoraiInfo,0,-1.7394649982452393,0.0021686195395886,0.0242131222039461,17.37295701488495,-10.187927500549316,0.0611923753470182,1.1111682653427124,-3.252457827329636e-05,0.0127265937626361,0.13427734375,0.0,0.0,0.0,0.0,0.0,0.0,0.0,0.0,0.0,0.0,0.0,0.0,0.0,0.0,0.0,0.0
1754715284307028305,614,1754715284896000000,MoraiInfo,0,-1.5878629684448242,0.0001554228365421,-0.0355764590203762,17.4084081886673,-10.18784929925537,0.0613247330486774,1.0794025659561155,-4.857359454035759e-05,0.0127261485904455,0.135955810546875,0.0,0.0,0.0,0.0,0.0,0.0,0.0,0.0,0.0,0.0,0.0,0.0,0.0,0.0,0.0,0.0
1754715284307081611,615,1754715284896000000,MoraiInfo,0,-1.5878629684448242,0.0001554228365421,-0.0355764590203762,17.4084081886673,-10.18784929925537,0.0613247330486774,1.0794025659561155,-4.857359454035759e-05,0.0127261485904455,0.135955810546875,0.0,0.0,0.0,0.0,0.0,0.0,0.0,0.0,0.0,0.0,0.0,0.0,0.0,0.0,0.0,0.0
1754715284346472392,616,1754715284932000000,MoraiInfo,0,-1.5483492612838743,0.0001892407890409,-0.0249541457742452,17.442158603515626,-10.187773005310058,0.0614109958708286,1.015843391418457,-4.255655221641064e-05,0.0132859852164983,0.137542724609375,0.0,0.0,0.0,0.0,0.0,0.0,0.0,0.0,0.0,0.0,0.0,0.0,0.0,0.0,0.0,0.0
1754715284348009410,617,1754715284964000000,MoraiInfo,0,-1.477739930152893,0.0002280247863382,-0.0210174955427646,17.477052831497193,-10.187694804016113,0.0614707867801189,0.9555690884590148,-3.8193073123693466e-05,0.0132102984935045,0.139190673828125,0.0,0.0,0.0,0.0,0.0,0.0,0.0,0.0,0.0,0.0,0.0,0.0,0.0,0.0,0.0,0.0
1754715284355307940,618,1754715284964000000,MoraiInfo,0,-1.477739930152893,0.0002280247863382,-0.0210174955427646,17.477052831497193,-10.187694804016113,0.0614707867801189,0.9555690884590148,-3.8193073123693466e-05,0.0132102984935045,0.139190673828125,0.0,0.0,0.0,0.0,0.0,0.0,0.0,0.0,0.0,0.0,0.0,0.0,0.0,0.0,0.0,0.0
1754715284430253552,619,1754715284999000000,MoraiInfo,0,-1.4437668323516846,0.0013077738694846,-0.0162455849349498,17.50502099975586,-10.187630430999755,0.0614993187785148,0.9266909956932068,-2.6439782232046127e-05,0.0130600621923804,0.1405029296875,0.0,0.0,0.0,0.0,0.0,0.0,0.0,0.0,0.0,0.0,0.0,0.0,0.0,0.0,0.0,0.0
1754715284430271847,620,1754715285032000000,MoraiInfo,0,-1.3507498502731323,0.0011403113603591,-0.0171762574464082,17.537431382980348,-10.18755509072876,0.0615135940909385,0.8718143701553345,-2.3635802790522572e-05,0.0125015620142221,0.14202880859375,0.0,0.0,0.0,0.0,0.0,0.0,0.0,0.0,0.0,0.0,0.0,0.0,0.0,0.0,0.0,0.0
1754715284430294941,621,1754715285032000000,MoraiInfo,0,-1.3507498502731323,0.0011403113603591,-0.0171762574464082,17.537431382980348,-10.18755509072876,0.0615135940909385,0.8718143701553345,-2.3635802790522572e-05,0.0125015620142221,0.14202880859375,0.0,0.0,0.0,0.0,0.0,0.0,0.0,0.0,0.0,0.0,0.0,0.0,0.0,0.0,0.0,0.0
1754715284457423924,622,1754715285064000000,MoraiInfo,0,-1.2576260566711426,0.001010846812278,-0.0169706232845783,17.56372370704651,-10.187493101898193,0.061513508409261695,0.8206122517585754,-2.1681422367691997e-05,0.0118272146210074,0.143218994140625,0.0,0.0,0.0,0.0,0.0,0.0,0.0,0.0,0.0,0.0,0.0,0.0,0.0,0.0,0.0,0.0
1754715284495392977,623,1754715285097000000,MoraiInfo,0,-1.211056351661682,0.0002489062026143,-0.0167933721095323,17.587318801727296,-10.187437311950683,0.061506501138210296,0.7963913679122925,-2.7229776605963707e-05,0.0114696789532899,0.144317626953125,0.0,0.0,0.0,0.0,0.0,0.0,0.0,0.0,0.0,0.0,0.0,0.0,0.0,0.0,0.0,0.0
1754715284495409959,624,1754715285098000000,MoraiInfo,0,-1.211056351661682,0.0002489062026143,-0.0167933721095323,17.587318801727296,-10.187437311950683,0.061506501138210296,0.7963913679122925,-2.7229776605963707e-05,0.0114696789532899,0.144317626953125,0.0,0.0,0.0,0.0,0.0,0.0,0.0,0.0,0.0,0.0,0.0,0.0,0.0,0.0,0.0,0.0
1754715284519142412,625,1754715285131000000,MoraiInfo,0,-1.121658205986023,0.0002862235996872,-0.015715217217803,17.61268212779999,-10.187376276794433,0.0614923301339149,0.750633180141449,-2.320599742233753e-05,0.0107491062954068,0.14544677734375,0.0,0.0,0.0,0.0,0.0,0.0,0.0,0.0,0.0,0.0,0.0,0.0,0.0,0.0,0.0,0.0
1754715284542513246,626,1754715285167000000,MoraiInfo,0,-1.0361435413360596,0.0003683855757117,-0.0144414836540818,17.63628628238678,-10.187319533172607,0.0614747393131256,0.7083422541618347,-1.9425293430686e-05,0.0100442562252283,0.146514892578125,1.0,0.0,0.0,0.0,0.0,0.0,0.0,0.0,0.0,0.0,0.0,0.0,0.0,0.0,0.0,0.0
1754715284589681218,627,1754715285167000000,MoraiInfo,0,-1.0361435413360596,0.0003683855757117,-0.0144414836540818,17.63628628238678,-10.187319533172607,0.0614747393131256,0.7083422541618347,-1.9425293430686e-05,0.0100442562252283,0.146514892578125,1.0,0.0,0.0,0.0,0.0,0.0,0.0,0.0,0.0,0.0,0.0,0.0,0.0,0.0,0.0,0.0
1754715284590512001,628,1754715285197000000,MoraiInfo,0,-0.955608069896698,0.0003916476853191,-0.0132588762789964,17.66176702960968,-10.187258498016357,0.061374815851449896,0.6693257689476013,-1.6247504390776157e-05,0.0093730920925736,0.1478271484375,1.0,0.0,0.0,0.0,0.0,0.0,0.0,0.0,0.0,0.0,0.0,0.0,0.0,0.0,0.0,0.0
1754715284637440070,629,1754715285232000000,MoraiInfo,0,4.432007312774658,0.0008145030587911,0.0445250608026981,17.688406967964173,-10.187200323883056,0.060795929953455896,0.7579973340034485,-2.4342909455299377e-05,0.0076621482148766,0.152435302734375,1.0,0.0,0.0,0.0,0.0,0.0,0.0,0.0,0.0,0.0,0.0,0.0,0.0,0.0,0.0,0.0
1754715284655365416,630,1754715285232000000,MoraiInfo,0,4.432007312774658,0.0008145030587911,0.0445250608026981,17.688406967964173,-10.187200323883056,0.060795929953455896,0.7579973340034485,-2.4342909455299377e-05,0.0076621482148766,0.152435302734375,1.0,0.0,0.0,0.0,0.0,0.0,0.0,0.0,0.0,0.0,0.0,0.0,0.0,0.0,0.0,0.0
1754715284666625816,631,1754715285266000000,MoraiInfo,0,3.5723016262054443,0.0037982119247317,-0.1160192042589187,17.716185593452455,-10.18714071923828,0.0604662585258483,0.898284912109375,-1.8582912161946297e-05,0.0064116581343114,0.15936279296875,1.0,0.0,0.0,0.0,0.0,0.0,0.0,0.0,0.0,0.0,0.0,0.0,0.0,0.0,0.0,0.0
1754715284692440187,632,1754715285298000000,MoraiInfo,0,3.5953409671783447,0.0054971817880868,-0.0125908898189663,17.75073280319214,-10.187063471618652,0.0602204564213752,1.0461441278457642,1.5879049897193909e-06,0.0052973381243646,0.16888427734375,1.0,0.0,0.0,0.0,0.0,0.0,0.0,0.0,0.0,0.0,0.0,0.0,0.0,0.0,0.0,0.0
1754715284717833799,633,1754715285298000000,MoraiInfo,0,3.5953409671783447,0.0054971817880868,-0.0125908898189663,17.75073280319214,-10.187063471618652,0.0602204564213752,1.0461441278457642,1.5879049897193909e-06,0.0052973381243646,0.16888427734375,1.0,0.0,0.0,0.0,0.0,0.0,0.0,0.0,0.0,0.0,0.0,0.0,0.0,0.0,0.0,0.0
1754715284722003545,634,1754715285333000000,MoraiInfo,0,3.507867813110352,0.0057647917419672,0.0049817152321338,17.7868021963501,-10.1869762104187,0.0600739407539367,1.116305232048035,-1.3774260878562927e-06,0.0045630647800862,0.178741455078125,1.0,0.0,0.0,0.0,0.0,0.0,0.0,0.0,0.0,0.0,0.0,0.0,0.0,0.0,0.0,0.0
1754715284756369542,635,1754715285365000000,MoraiInfo,0,3.350862503051758,0.005788367241621,0.0036740314681082,17.83261092885971,-10.186853663269043,0.0599698039889335,1.252327799797058,-1.5158671885728836e-05,0.0034913890995085,0.189788818359375,1.0,0.0,0.0,0.0,0.0,0.0,0.0,0.0,0.0,0.0,0.0,0.0,0.0,0.0,0.0,0.0
1754715284756399472,636,1754715285365000000,MoraiInfo,0,3.350862503051758,0.005788367241621,0.0036740314681082,17.83261092885971,-10.186853663269043,0.0599698039889335,1.252327799797058,-1.5158671885728836e-05,0.0034913890995085,0.189788818359375,1.0,0.0,0.0,0.0,0.0,0.0,0.0,0.0,0.0,0.0,0.0,0.0,0.0,0.0,0.0,0.0
1754715284777121568,637,1754715285399000000,MoraiInfo,0,3.1579582691192627,0.0055740661919116,0.0032479253131896,17.875636541690827,-10.18672968560791,0.0599223437905311,1.3806105852127075,-4.280498251318932e-05,0.0029557230882346,0.19873046875,1.0,0.0,0.0,0.0,0.0,0.0,0.0,0.0,0.0,0.0,0.0,0.0,0.0,0.0,0.0,0.0
1754715284804920430,638,1754715285435000000,MoraiInfo,0,3.0420162677764893,0.0054779481142759,0.0028785695321857,17.92284431442261,-10.186581866088867,0.0599106277525424,1.4414513111114502,-5.7134777307510376e-05,0.0028879956807941,0.206878662109375,1.0,0.0,0.0,0.0,0.0,0.0,0.0,0.0,0.0,0.0,0.0,0.0,0.0,0.0,0.0,0.0
1754715284813497124,639,1754715285435000000,MoraiInfo,0,3.0420162677764893,0.0054779481142759,0.0028785695321857,17.92284431442261,-10.186581866088867,0.0599106277525424,1.4414513111114502,-5.7134777307510376e-05,0.0028879956807941,0.206878662109375,1.0,0.0,0.0,0.0,0.0,0.0,0.0,0.0,0.0,0.0,0.0,0.0,0.0,0.0,0.0,0.0
1754715284825307195,640,1754715285465000000,MoraiInfo,0,2.778853416442871,0.0052627762779593,0.0034544570371508,17.980418526973725,-10.186391131225585,0.0599292542040348,1.5553269386291504,-8.503301069140434e-05,0.0031314305961132,0.2152099609375,1.0,0.0,0.0,0.0,0.0,0.0,0.0,0.0,0.0,0.0,0.0,0.0,0.0,0.0,0.0,0.0
1754715284898570951,641,1754715285504000000,MoraiInfo,0,2.55934476852417,0.0047632614150643,0.0043310304172337,18.030180418338777,-10.18621994668579,0.059957203194499,1.6592044830322266,-0.0001325658522546,0.0037594761233776,0.2220458984375,0.0,0.0,0.0,0.0,0.0,0.0,0.0,0.0,0.0,0.0,0.0,0.0,0.0,0.0,0.0,0.0
1754715284909045392,642,1754715285504000000,MoraiInfo,0,2.55934476852417,0.0047632614150643,0.0043310304172337,18.030180418338777,-10.18621994668579,0.059957203194499,1.6592044830322266,-0.0001325658522546,0.0037594761233776,0.2220458984375,0.0,0.0,0.0,0.0,0.0,0.0,0.0,0.0,0.0,0.0,0.0,0.0,0.0,0.0,0.0,0.0
1754715284929033389,643,1754715285534000000,MoraiInfo,0,2.5416529178619385,0.0062335580587387,0.0082260100170969,18.101536953296662,-10.185965792480468,0.0599932863563299,1.761315941810608,-0.0001728027127683,0.0044334772974252,0.23175048828125,0.0,0.0,0.0,0.0,0.0,0.0,0.0,0.0,0.0,0.0,0.0,0.0,0.0,0.0,0.0,0.0
1754715284934675690,644,1754715285565000000,MoraiInfo,0,1.148056983947754,0.0051878653466701,0.0040098149329423,18.150175297107698,-10.185775057617189,0.0603209349513053,1.7842715978622437,-0.0001135892234742,0.0064050550572574,0.23370361328125,0.0,0.0,0.0,0.0,0.0,0.0,0.0,0.0,0.0,0.0,0.0,0.0,0.0,0.0,0.0,0.0
1754715284934705387,645,1754715285565000000,MoraiInfo,0,1.148056983947754,0.0051878653466701,0.0040098149329423,18.150175297107698,-10.185775057617189,0.0603209349513053,1.7842715978622437,-0.0001135892234742,0.0064050550572574,0.23370361328125,0.0,0.0,0.0,0.0,0.0,0.0,0.0,0.0,0.0,0.0,0.0,0.0,0.0,0.0,0.0,0.0
1754715284958996323,646,1754715285599000000,MoraiInfo,0,-2.466352939605713,0.003105382900685,-0.053953506052494,18.203334414806367,-10.185563341918945,0.0606751541793346,1.734915256500244,-9.183119982481004e-05,0.0109844235703349,0.23553466796875,0.0,0.0,0.0,0.0,0.0,0.0,0.0,0.0,0.0,0.0,0.0,0.0,0.0,0.0,0.0,0.0
1754715285013898656,647,1754715285633000000,MoraiInfo,0,-1.9564154148101809,0.0020142174325883,0.0813163071870803,18.2609654901886,-10.185332075897216,0.0610026742517948,1.669735312461853,-6.27678819000721e-05,0.0160264912992715,0.237548828125,1.0,0.0,0.0,0.0,0.0,0.0,0.0,0.0,0.0,0.0,0.0,0.0,0.0,0.0,0.0,0.0
1754715285019380912,648,1754715285633000000,MoraiInfo,0,-1.9564154148101809,0.0020142174325883,0.0813163071870803,18.2609654901886,-10.185332075897216,0.0610026742517948,1.669735312461853,-6.27678819000721e-05,0.0160264912992715,0.237548828125,1.0,0.0,0.0,0.0,0.0,0.0,0.0,0.0,0.0,0.0,0.0,0.0,0.0,0.0,0.0,0.0
1754715285025812623,649,1754715285668000000,MoraiInfo,0,-1.7963149547576904,0.0022307424806058,0.0277453549206256,18.316342556324006,-10.18510843927002,0.0609873893857002,1.6022862195968628,-4.958221688866615e-05,0.0185275450348854,0.2398681640625,1.0,0.0,0.0,0.0,0.0,0.0,0.0,0.0,0.0,0.0,0.0,0.0,0.0,0.0,0.0,0.0
1754715285071851839,650,1754715285700000000,MoraiInfo,0,2.6772615909576416,0.0034430623054504,0.1918304562568664,18.37358548625946,-10.184882895294189,0.0606713096797466,1.7292933464050293,-0.0001267697662115,0.0164736546576023,0.2454833984375,1.0,0.0,0.0,0.0,0.0,0.0,0.0,0.0,0.0,0.0,0.0,0.0,0.0,0.0,0.0,0.0
1754715285081989793,651,1754715285700000000,MoraiInfo,0,2.6772615909576416,0.0034430623054504,0.1918304562568664,18.37358548625946,-10.184882895294189,0.0606713096797466,1.7292933464050293,-0.0001267697662115,0.0164736546576023,0.2454833984375,1.0,0.0,0.0,0.0,0.0,0.0,0.0,0.0,0.0,0.0,0.0,0.0,0.0,0.0,0.0,0.0
1754715285114416809,652,1754715285732000000,MoraiInfo,0,2.3039066791534424,0.0049276622012257,-0.1251149028539657,18.432569467868806,-10.184646860900878,0.0604901115596294,1.7753852605819702,-0.0001418930478394,0.0124588944017887,0.252288818359375,1.0,0.0,0.0,0.0,0.0,0.0,0.0,0.0,0.0,0.0,0.0,0.0,0.0,0.0,0.0,0.0
1754715285128737872,653,1754715285769000000,MoraiInfo,0,2.4891552925109863,0.0060727540403604,-0.0013729451457038,18.492747837152482,-10.184398905578613,0.0603730480372905,1.876111388206482,-0.0001963125541806,0.0111609017476439,0.259368896484375,0.0,0.0,0.0,0.0,0.0,0.0,0.0,0.0,0.0,0.0,0.0,0.0,0.0,0.0,0.0,0.0
1754715285154661545,654,1754715285769000000,MoraiInfo,0,2.4891552925109863,0.0060727540403604,-0.0013729451457038,18.492747837152482,-10.184398905578613,0.0603730480372905,1.876111388206482,-0.0001963125541806,0.0111609017476439,0.259368896484375,0.0,0.0,0.0,0.0,0.0,0.0,0.0,0.0,0.0,0.0,0.0,0.0,0.0,0.0,0.0,0.0
1754715285161924792,655,1754715285801000000,MoraiInfo,0,2.444110870361328,0.0071692410856485,0.0075825690291821,18.56659748538971,-10.184085623565673,0.060351441353559396,1.973964810371399,-0.000223409384489,0.009939176030457,0.26788330078125,0.0,0.0,0.0,0.0,0.0,0.0,0.0,0.0,0.0,0.0,0.0,0.0,0.0,0.0,0.0,0.0
1754715285191452889,656,1754715285834000000,MoraiInfo,0,-0.7553375363349915,0.0066871671006083,-0.0073823989368975,18.627657675590516,-10.183813826385498,0.0607572074234485,1.9588347673416135,-0.0002154856920242,0.0136864846572279,0.27239990234375,0.0,0.0,0.0,0.0,0.0,0.0,0.0,0.0,0.0,0.0,0.0,0.0,0.0,0.0,0.0,0.0
1754715285232638750,657,1754715285834000000,MoraiInfo,0,-0.7553375363349915,0.0066871671006083,-0.0073823989368975,18.627657675590516,-10.183813826385498,0.0607572074234485,1.9588347673416135,-0.0002154856920242,0.0136864846572279,0.27239990234375,0.0,0.0,0.0,0.0,0.0,0.0,0.0,0.0,0.0,0.0,0.0,0.0,0.0,0.0,0.0,0.0
1754715285241454007,658,1754715285869000000,MoraiInfo,0,-1.556491732597351,0.0048918277025222,0.0120127154514193,18.69044917210579,-10.183524863067626,0.0610175903141498,1.8865959644317627,-0.0001360774040222,0.0176526699215173,0.275390625,0.0,0.0,0.0,0.0,0.0,0.0,0.0,0.0,0.0,0.0,0.0,0.0,0.0,0.0,0.0,0.0
1754715285262848016,659,1754715285903000000,MoraiInfo,0,-1.6644566059112549,0.0036034961231052,-0.0278385542333126,18.752800071086885,-10.183232561889648,0.061217126175761194,1.8172674179077148,-9.341444820165634e-05,0.020948501303792,0.27764892578125,1.0,0.0,0.0,0.0,0.0,0.0,0.0,0.0,0.0,0.0,0.0,0.0,0.0,0.0,0.0,0.0
1754715285266577486,660,1754715285903000000,MoraiInfo,0,-1.6644566059112549,0.0036034961231052,-0.0278385542333126,18.752800071086885,-10.183232561889648,0.061217126175761194,1.8172674179077148,-9.341444820165634e-05,0.020948501303792,0.27764892578125,1.0,0.0,0.0,0.0,0.0,0.0,0.0,0.0,0.0,0.0,0.0,0.0,0.0,0.0,0.0,0.0
1754715285291186214,661,1754715285935000000,MoraiInfo,0,-1.7402033805847168,0.0020452816970646,-0.0035890184808522,18.81618422310442,-10.182931677642822,0.0613659086823463,1.7824469804763794,-8.994434028863907e-05,0.0222589001059532,0.27972412109375,1.0,0.0,0.0,0.0,0.0,0.0,0.0,0.0,0.0,0.0,0.0,0.0,0.0,0.0,0.0,0.0
1754715285354232674,662,1754715285970000000,MoraiInfo,0,3.5735068321228027,0.0020376816391944,0.0447115115821361,18.87180534883976,-10.182670847717285,0.0608659076690673,1.8200795650482176,-0.0001018419861793,0.0179250854998826,0.283905029296875,0.0,0.0,0.0,0.0,0.0,0.0,0.0,0.0,0.0,0.0,0.0,0.0,0.0,0.0,0.0,0.0
1754715285367257910,663,1754715285970000000,MoraiInfo,0,3.5735068321228027,0.0020376816391944,0.0447115115821361,18.87180534883976,-10.182670847717285,0.0608659076690673,1.8200795650482176,-0.0001018419861793,0.0179250854998826,0.283905029296875,0.0,0.0,0.0,0.0,0.0,0.0,0.0,0.0,0.0,0.0,0.0,0.0,0.0,0.0,0.0,0.0
1754715285390721358,664,1754715286002000000,MoraiInfo,0,2.2565033435821533,0.0057794861495494,-0.1157859861850738,18.938351833667756,-10.182355658355712,0.060717484652996,1.917134523391724,-0.0001607500016689,0.0153988683596253,0.290008544921875,0.0,0.0,0.0,0.0,0.0,0.0,0.0,0.0,0.0,0.0,0.0,0.0,0.0,0.0,0.0,0.0
1754715285394782348,665,1754715286036000000,MoraiInfo,0,-0.2008041739463806,0.0052500162273645,0.0350617840886116,18.99775495513916,-10.182063357177734,0.061024195253849,1.9131016731262207,-0.0001013772562146,0.0180304124951362,0.2926025390625,0.0,0.0,0.0,0.0,0.0,0.0,0.0,0.0,0.0,0.0,0.0,0.0,0.0,0.0,0.0,0.0
1754715285398195687,666,1754715286036000000,MoraiInfo,0,-0.2008041739463806,0.0052500162273645,0.0350617840886116,18.99775495513916,-10.182063357177734,0.061024195253849,1.9131016731262207,-0.0001013772562146,0.0180304124951362,0.2926025390625,0.0,0.0,0.0,0.0,0.0,0.0,0.0,0.0,0.0,0.0,0.0,0.0,0.0,0.0,0.0,0.0
1754715285430013018,667,1754715286069000000,MoraiInfo,0,-1.4142574071884155,0.0041973972693085,-0.0229701828211545,19.064115190353395,-10.181731478515625,0.0612166325747966,1.838592529296875,-7.82255083322525e-05,0.0197493340820074,0.294921875,1.0,0.0,0.0,0.0,0.0,0.0,0.0,0.0,0.0,0.0,0.0,0.0,0.0,0.0,0.0,0.0
1754715285501924626,668,1754715286106000000,MoraiInfo,0,-1.6163748502731323,0.0029916153289377,-0.0516740083694458,19.12263923272133,-10.181436793151857,0.061207699328660894,1.7686711549758911,-6.830599159002304e-05,0.0220837034285068,0.29705810546875,1.0,0.0,0.0,0.0,0.0,0.0,0.0,0.0,0.0,0.0,0.0,0.0,0.0,0.0,0.0,0.0
1754715285507913918,669,1754715286106000000,MoraiInfo,0,-1.6163748502731323,0.0029916153289377,-0.0516740083694458,19.12263923272133,-10.181436793151857,0.061207699328660894,1.7686711549758911,-6.830599159002304e-05,0.0220837034285068,0.29705810546875,1.0,0.0,0.0,0.0,0.0,0.0,0.0,0.0,0.0,0.0,0.0,0.0,0.0,0.0,0.0,0.0
1754715285521406964,670,1754715286137000000,MoraiInfo,0,2.5762007236480717,0.0039405096322298,0.1604679971933365,19.190930241193772,-10.181096331420898,0.0607916905730962,1.8915395736694336,-0.0001435931771993,0.0193687491118907,0.302764892578125,1.0,0.0,0.0,0.0,0.0,0.0,0.0,0.0,0.0,0.0,0.0,0.0,0.0,0.0,0.0,0.0
1754715285545021747,671,1754715286168000000,MoraiInfo,0,2.253624200820923,0.0054386276751756,-0.1103536859154701,19.249353909339906,-10.180803076568605,0.060600266531109795,1.936630725860596,-0.0001589581370353,0.0152461286634206,0.308990478515625,0.0,0.0,0.0,0.0,0.0,0.0,0.0,0.0,0.0,0.0,0.0,0.0,0.0,0.0,0.0,0.0
1754715285551538354,672,1754715286168000000,MoraiInfo,0,2.253624200820923,0.0054386276751756,-0.1103536859154701,19.249353909339906,-10.180803076568605,0.060600266531109795,1.936630725860596,-0.0001589581370353,0.0152461286634206,0.308990478515625,0.0,0.0,0.0,0.0,0.0,0.0,0.0,0.0,0.0,0.0,0.0,0.0,0.0,0.0,0.0,0.0
1754715285567950812,673,1754715286203000000,MoraiInfo,0,2.417738199234009,0.0062121227383613,-0.0002116137329721,19.313476109352113,-10.180473105255126,0.0605201206356287,2.0345170497894287,-0.0002011312171816,0.0133083816617727,0.3154296875,0.0,0.0,0.0,0.0,0.0,0.0,0.0,0.0,0.0,0.0,0.0,0.0,0.0,0.0,0.0,0.0
1754715285612168212,674,1754715286237000000,MoraiInfo,0,-1.2627464532852173,0.0063319876790046,-0.0150209739804267,19.38039704545975,-10.18011118585205,0.060898857861757194,2.009230852127075,-8.722767233848572e-05,0.0172057133167982,0.317230224609375,0.0,0.0,0.0,0.0,0.0,0.0,0.0,0.0,0.0,0.0,0.0,0.0,0.0,0.0,0.0,0.0
1754715285619220766,675,1754715286237000000,MoraiInfo,0,-1.2627464532852173,0.0063319876790046,-0.0150209739804267,19.38039704545975,-10.18011118585205,0.060898857861757194,2.009230852127075,-8.722767233848572e-05,0.0172057133167982,0.317230224609375,0.0,0.0,0.0,0.0,0.0,0.0,0.0,0.0,0.0,0.0,0.0,0.0,0.0,0.0,0.0,0.0
1754715285648875905,676,1754715286271000000,MoraiInfo,0,-1.6835957765579224,0.0039331899024546,0.0384273491799831,19.45140340312958,-10.17972399407959,0.061148994341492596,1.9392194747924805,-7.009971886873245e-05,0.0204481855034828,0.319305419921875,0.0,0.0,0.0,0.0,0.0,0.0,0.0,0.0,0.0,0.0,0.0,0.0,0.0,0.0,0.0,0.0
1754715285663103929,677,1754715286304000000,MoraiInfo,0,-1.706519365310669,0.0032812869176268,-0.0111733647063374,19.51232012495041,-10.179390208068847,0.0613037075102329,1.8705408573150637,-6.004609167575836e-05,0.0229402016848325,0.321044921875,1.0,0.0,0.0,0.0,0.0,0.0,0.0,0.0,0.0,0.0,0.0,0.0,0.0,0.0,0.0,0.0
1754715285714843115,678,1754715286304000000,MoraiInfo,0,-1.706519365310669,0.0032812869176268,-0.0111733647063374,19.51232012495041,-10.179390208068847,0.0613037075102329,1.8705408573150637,-6.004609167575836e-05,0.0229402016848325,0.321044921875,1.0,0.0,0.0,0.0,0.0,0.0,0.0,0.0,0.0,0.0,0.0,0.0,0.0,0.0,0.0,0.0
1754715285720379654,679,1754715286336000000,MoraiInfo,0,-1.7141783237457275,0.0007405076175928,-0.0173586960881948,19.572274470176698,-10.179059759918212,0.0614170196652412,1.83624279499054,-7.999595254659653e-05,0.0237335041165351,0.322784423828125,1.0,0.0,0.0,0.0,0.0,0.0,0.0,0.0,0.0,0.0,0.0,0.0,0.0,0.0,0.0,0.0
1754715285745619738,680,1754715286370000000,MoraiInfo,0,3.539836406707764,0.001579126343131,0.0402961038053035,19.631614112701417,-10.178735987487793,0.060902765691280294,1.8729183673858645,-9.174924343824388e-05,0.0190784875303506,0.32696533203125,1.0,0.0,0.0,0.0,0.0,0.0,0.0,0.0,0.0,0.0,0.0,0.0,0.0,0.0,0.0,0.0
1754715285750385309,681,1754715286370000000,MoraiInfo,0,3.539836406707764,0.001579126343131,0.0402961038053035,19.631614112701417,-10.178735987487793,0.060902765691280294,1.8729183673858645,-9.174924343824388e-05,0.0190784875303506,0.32696533203125,1.0,0.0,0.0,0.0,0.0,0.0,0.0,0.0,0.0,0.0,0.0,0.0,0.0,0.0,0.0,0.0
1754715285782483218,682,1754715286405000000,MoraiInfo,0,2.2367944717407227,0.005310671404004,-0.1160715147852897,19.698421978797914,-10.178370730224609,0.0606846462190151,1.969105124473572,-0.0001654187217354,0.0163052603602409,0.333526611328125,0.0,0.0,0.0,0.0,0.0,0.0,0.0,0.0,0.0,0.0,0.0,0.0,0.0,0.0,0.0,0.0
1754715285793388982,683,1754715286437000000,MoraiInfo,0,2.459294557571411,0.0074644405394792,0.0549151785671711,19.7683416245842,-10.177982107940673,0.0605107571184635,2.01830530166626,-0.0001843897625803,0.0155773907899856,0.34124755859375,0.0,0.0,0.0,0.0,0.0,0.0,0.0,0.0,0.0,0.0,0.0,0.0,0.0,0.0,0.0,0.0
1754715285819639570,684,1754715286437000000,MoraiInfo,0,2.459294557571411,0.0074644405394792,0.0549151785671711,19.7683416245842,-10.177982107940673,0.0605107571184635,2.01830530166626,-0.0001843897625803,0.0155773907899856,0.34124755859375,0.0,0.0,0.0,0.0,0.0,0.0,0.0,0.0,0.0,0.0,0.0,0.0,0.0,0.0,0.0,0.0
1754715285850276516,685,1754715286474000000,MoraiInfo,0,-1.6099145412445068,0.0066084051504731,-0.0188091844320297,19.835553550567628,-10.17758776361084,0.0608999307453632,2.0341479778289795,-9.014736860990524e-05,0.0183977391570806,0.3428955078125,0.0,0.0,0.0,0.0,0.0,0.0,0.0,0.0,0.0,0.0,0.0,0.0,0.0,0.0,0.0,0.0
1754715285881605119,686,1754715286507000000,MoraiInfo,0,-1.7712610960006714,0.004144384060055,0.0580624639987945,19.910236978378297,-10.17714716607666,0.0611562977731227,1.9656360149383545,-7.014907896518707e-05,0.0215357914566993,0.345184326171875,1.0,0.0,0.0,0.0,0.0,0.0,0.0,0.0,0.0,0.0,0.0,0.0,0.0,0.0,0.0,0.0
1754715285894442854,687,1754715286507000000,MoraiInfo,0,-1.7712610960006714,0.004144384060055,0.0580624639987945,19.910236978378297,-10.17714716607666,0.0611562977731227,1.9656360149383545,-7.014907896518707e-05,0.0215357914566993,0.345184326171875,1.0,0.0,0.0,0.0,0.0,0.0,0.0,0.0,0.0,0.0,0.0,0.0,0.0,0.0,0.0,0.0
1754715285948061621,688,1754715286539000000,MoraiInfo,0,-1.735762596130371,0.0037205312401056,0.0011963893193751,19.975464963760377,-10.176760451141357,0.061207103282213196,1.8973857164382932,-5.759019404649735e-05,0.023723766207695,0.34722900390625,1.0,0.0,0.0,0.0,0.0,0.0,0.0,0.0,0.0,0.0,0.0,0.0,0.0,0.0,0.0,0.0
1754715285966883629,689,1754715286575000000,MoraiInfo,0,3.4900567531585693,0.0014684591442346,0.0297915693372488,20.038297557678224,-10.17639090234375,0.0608038461953401,1.967251539230347,-9.38568264245987e-05,0.0183933358639478,0.351837158203125,1.0,0.0,0.0,0.0,0.0,0.0,0.0,0.0,0.0,0.0,0.0,0.0,0.0,0.0,0.0,0.0
1754715285987376967,690,1754715286575000000,MoraiInfo,0,3.4900567531585693,0.0014684591442346,0.0297915693372488,20.038297557678224,-10.17639090234375,0.0608038461953401,1.967251539230347,-9.38568264245987e-05,0.0183933358639478,0.351837158203125,1.0,0.0,0.0,0.0,0.0,0.0,0.0,0.0,0.0,0.0,0.0,0.0,0.0,0.0,0.0,0.0
1754715285999272347,691,1754715286604000000,MoraiInfo,0,2.2043139934539795,0.0053816307336091,-0.1166088506579399,20.109548950042726,-10.175970331970214,0.060602503567934,2.062017679214477,-0.0001732353121042,0.0160390809178352,0.358551025390625,0.0,0.0,0.0,0.0,0.0,0.0,0.0,0.0,0.0,0.0,0.0,0.0,0.0,0.0,0.0,0.0
1754715286012084759,692,1754715286638000000,MoraiInfo,0,2.420361280441284,0.0074095949530601,0.0551844798028469,20.17139794811249,-10.175599352661132,0.060476192012429195,2.1104369163513184,-0.0002004140987992,0.0154523709788918,0.36474609375,0.0,0.0,0.0,0.0,0.0,0.0,0.0,0.0,0.0,0.0,0.0,0.0,0.0,0.0,0.0,0.0
1754715286015207864,693,1754715286638000000,MoraiInfo,0,2.420361280441284,0.0074095949530601,0.0551844798028469,20.17139794811249,-10.175599352661132,0.060476192012429195,2.1104369163513184,-0.0002004140987992,0.0154523709788918,0.36474609375,0.0,0.0,0.0,0.0,0.0,0.0,0.0,0.0,0.0,0.0,0.0,0.0,0.0,0.0,0.0,0.0
1754715286033174706,694,1754715286672000000,MoraiInfo,0,-2.294982433319092,0.007438697386533,-0.0246354080736637,20.240584039535523,-10.175164477172851,0.060899487435817704,2.1117753982543945,-8.033588528633118e-05,0.0196099840104579,0.365631103515625,1.0,0.0,0.0,0.0,0.0,0.0,0.0,0.0,0.0,0.0,0.0,0.0,0.0,0.0,0.0,0.0
1754715286065236646,695,1754715286705000000,MoraiInfo,0,-1.9444074630737305,0.0044828355312347,0.0977929234504699,20.31297495349884,-10.174708620849609,0.0609772826731205,2.046186685562134,-5.805864930152893e-05,0.0231097564101219,0.36773681640625,1.0,0.0,0.0,0.0,0.0,0.0,0.0,0.0,0.0,0.0,0.0,0.0,0.0,0.0,0.0,0.0
1754715286088617298,696,1754715286705000000,MoraiInfo,0,-1.9444074630737305,0.0044828355312347,0.0977929234504699,20.31297495349884,-10.174708620849609,0.0609772826731205,2.046186685562134,-5.805864930152893e-05,0.0231097564101219,0.36773681640625,1.0,0.0,0.0,0.0,0.0,0.0,0.0,0.0,0.0,0.0,0.0,0.0,0.0,0.0,0.0,0.0
1754715286097246294,697,1754715286740000000,MoraiInfo,0,3.412071466445923,0.0011533088982105,-0.0323864296078681,20.38211240753174,-10.174275175872802,0.060673775821924195,2.1144862174987797,-9.673088788986206e-05,0.0165322478860616,0.371826171875,1.0,0.0,0.0,0.0,0.0,0.0,0.0,0.0,0.0,0.0,0.0,0.0,0.0,0.0,0.0,0.0
1754715286148918483,698,1754715286773000000,MoraiInfo,0,2.144988536834717,0.0037355367094278,-0.1288105845451355,20.459148073043824,-10.173783556762695,0.0605460803210735,2.2069194316864014,-0.0001786835491657,0.0153251700103282,0.37506103515625,0.0,0.0,0.0,0.0,0.0,0.0,0.0,0.0,0.0,0.0,0.0,0.0,0.0,0.0,0.0,0.0
1754715286152269251,699,1754715286773000000,MoraiInfo,0,2.144988536834717,0.0037355367094278,-0.1288105845451355,20.459148073043824,-10.173783556762695,0.0605460803210735,2.2069194316864014,-0.0001786835491657,0.0153251700103282,0.37506103515625,0.0,0.0,0.0,0.0,0.0,0.0,0.0,0.0,0.0,0.0,0.0,0.0,0.0,0.0,0.0,0.0
1754715286185959023,700,1754715286805000000,MoraiInfo,0,0.4594242870807647,-0.0004061656072735,-0.0297799501568079,20.53722944244385,-10.173280016723632,0.0607686254382133,2.2514655590057373,-0.0001321984454989,0.0167529676109552,0.37744140625,0.0,0.0,0.0,0.0,0.0,0.0,0.0,0.0,0.0,0.0,0.0,0.0,0.0,0.0,0.0,0.0
1754715286201159187,701,1754715286840000000,MoraiInfo,0,-1.312121868133545,0.000518437474966,-0.0758789107203483,20.605866336669923,-10.172834173980712,0.0610008004307746,2.175837516784668,-0.0001105517148971,0.0209110658615827,0.379364013671875,0.0,0.0,0.0,0.0,0.0,0.0,0.0,0.0,0.0,0.0,0.0,0.0,0.0,0.0,0.0,0.0
1754715286228514110,702,1754715286840000000,MoraiInfo,0,-1.312121868133545,0.000518437474966,-0.0758789107203483,20.605866336669923,-10.172834173980712,0.0610008004307746,2.175837516784668,-0.0001105517148971,0.0209110658615827,0.379364013671875,0.0,0.0,0.0,0.0,0.0,0.0,0.0,0.0,0.0,0.0,0.0,0.0,0.0,0.0,0.0,0.0
1754715286256251970,703,1754715286871000000,MoraiInfo,0,-1.9422208070755005,0.0045874919742345,0.0649472028017044,20.681541824188233,-10.172339217010498,0.061232114881277,2.1369640827178955,-6.608478724956512e-05,0.0250972006469964,0.381439208984375,0.0,0.0,0.0,0.0,0.0,0.0,0.0,0.0,0.0,0.0,0.0,0.0,0.0,0.0,0.0,0.0
1754715286309593373,704,1754715286906000000,MoraiInfo,0,-1.7899891138076782,0.0044787093065679,0.0204801280051469,20.745734357681275,-10.171917692962648,0.061367182731628396,2.069544792175293,-5.684979259967804e-05,0.0269241835922002,0.38311767578125,1.0,0.0,0.0,0.0,0.0,0.0,0.0,0.0,0.0,0.0,0.0,0.0,0.0,0.0,0.0,0.0
1754715286316596136,705,1754715286907000000,MoraiInfo,0,-1.7899891138076782,0.0044787093065679,0.0204801280051469,20.745734357681275,-10.171917692962648,0.061367182731628396,2.069544792175293,-5.684979259967804e-05,0.0269241835922002,0.38311767578125,1.0,0.0,0.0,0.0,0.0,0.0,0.0,0.0,0.0,0.0,0.0,0.0,0.0,0.0,0.0,0.0
1754715286339742954,706,1754715286941000000,MoraiInfo,0,-1.7378846406936646,0.0041058287024497,-0.0058637545444071,20.814597272720338,-10.171463267150878,0.0614388945698738,2.0014798641204834,-5.403254181146622e-05,0.0278215128928422,0.38494873046875,1.0,0.0,0.0,0.0,0.0,0.0,0.0,0.0,0.0,0.0,0.0,0.0,0.0,0.0,0.0,0.0
1754715286346279904,707,1754715286972000000,MoraiInfo,0,3.417378187179565,0.001257449388504,0.0302877221256494,20.885887050476075,-10.170995489898681,0.060927512794733,2.069908380508423,-9.371526539325714e-05,0.0218066703528165,0.389617919921875,1.0,0.0,0.0,0.0,0.0,0.0,0.0,0.0,0.0,0.0,0.0,0.0,0.0,0.0,0.0,0.0
1754715286350030597,708,1754715286972000000,MoraiInfo,0,3.417378187179565,0.001257449388504,0.0302877221256494,20.885887050476075,-10.170995489898681,0.060927512794733,2.069908380508423,-9.371526539325714e-05,0.0218066703528165,0.389617919921875,1.0,0.0,0.0,0.0,0.0,0.0,0.0,0.0,0.0,0.0,0.0,0.0,0.0,0.0,0.0,0.0
1754715286368277344,709,1754715287008000000,MoraiInfo,0,2.1610867977142334,0.0042004603892564,-0.1152942404150962,20.955013656463624,-10.17053915673828,0.0607129174470901,2.1627604961395264,-0.0002004224807024,0.0185860879719257,0.39501953125,0.0,0.0,0.0,0.0,0.0,0.0,0.0,0.0,0.0,0.0,0.0,0.0,0.0,0.0,0.0,0.0
1754715286419858059,710,1754715287043000000,MoraiInfo,0,1.5896742343902588,0.0043786754831671,-0.0066188140772283,21.035388851013185,-10.169990794006347,0.060675951391458496,2.241086721420288,-7.407087832689285e-05,0.0170936472713947,0.396453857421875,0.0,0.0,0.0,0.0,0.0,0.0,0.0,0.0,0.0,0.0,0.0,0.0,0.0,0.0,0.0,0.0
1754715286422335796,711,1754715287043000000,MoraiInfo,0,1.5896742343902588,0.0043786754831671,-0.0066188140772283,21.035388851013185,-10.169990794006347,0.060675951391458496,2.241086721420288,-7.407087832689285e-05,0.0170936472713947,0.396453857421875,0.0,0.0,0.0,0.0,0.0,0.0,0.0,0.0,0.0,0.0,0.0,0.0,0.0,0.0,0.0,0.0
1754715286432774271,712,1754715287074000000,MoraiInfo,0,-2.5340209007263184,0.0027333283796906,-0.0477575100958347,21.115573549118043,-10.169441477600097,0.0610048032552003,2.190354347229004,-8.923094719648361e-05,0.0219773016870021,0.39837646484375,0.0,0.0,0.0,0.0,0.0,0.0,0.0,0.0,0.0,0.0,0.0,0.0,0.0,0.0,0.0,0.0
1754715286478940414,713,1754715287107000000,MoraiInfo,0,-1.9847350120544436,0.0032026404514908,0.0912079736590385,21.177294635620118,-10.169017092529296,0.0612252976000309,2.1256988048553467,-5.193240940570831e-05,0.0253893919289112,0.399993896484375,1.0,0.0,0.0,0.0,0.0,0.0,0.0,0.0,0.0,0.0,0.0,0.0,0.0,0.0,0.0,0.0
1754715286505650742,714,1754715287107000000,MoraiInfo,0,-1.9847350120544436,0.0032026404514908,0.0912079736590385,21.177294635620118,-10.169017092529296,0.0612252976000309,2.1256988048553467,-5.193240940570831e-05,0.0253893919289112,0.399993896484375,1.0,0.0,0.0,0.0,0.0,0.0,0.0,0.0,0.0,0.0,0.0,0.0,0.0,0.0,0.0,0.0
1754715286512258135,715,1754715287141000000,MoraiInfo,0,-1.8056132793426516,0.0035324860364198,0.0291063692420721,21.247250461425782,-10.168534056488037,0.061295198947191196,2.058490514755249,-5.004741251468658e-05,0.0269743967801332,0.40179443359375,1.0,0.0,0.0,0.0,0.0,0.0,0.0,0.0,0.0,0.0,0.0,0.0,0.0,0.0,0.0,0.0
1754715286538647967,716,1754715287174000000,MoraiInfo,0,3.3896820545196533,0.0013311002403497,0.0093663204461336,21.317111873474122,-10.168054358306884,0.060852973461151094,2.1263587474823,-9.083375334739684e-05,0.0206464752554893,0.406005859375,1.0,0.0,0.0,0.0,0.0,0.0,0.0,0.0,0.0,0.0,0.0,0.0,0.0,0.0,0.0,0.0
1754715286541765823,717,1754715287174000000,MoraiInfo,0,3.3896820545196533,0.0013311002403497,0.0093663204461336,21.317111873474122,-10.168054358306884,0.060852973461151094,2.1263587474823,-9.083375334739684e-05,0.0206464752554893,0.406005859375,1.0,0.0,0.0,0.0,0.0,0.0,0.0,0.0,0.0,0.0,0.0,0.0,0.0,0.0,0.0,0.0
1754715286567452677,718,1754715287208000000,MoraiInfo,0,2.140079975128174,0.0038304924964904,-0.1190613731741905,21.39062228187561,-10.167544142547607,0.0606981746107339,2.2183754444122314,-0.0001953318715095,0.0179900713264942,0.409912109375,0.0,0.0,0.0,0.0,0.0,0.0,0.0,0.0,0.0,0.0,0.0,0.0,0.0,0.0,0.0,0.0
1754715286620171857,719,1754715287241000000,MoraiInfo,0,0.4958700537681579,6.835092790424824e-05,-0.0430540405213832,21.46739139541626,-10.167001501861572,0.060776316300034494,2.253652811050415,-0.000120609998703,0.0185573864728212,0.4114990234375,0.0,0.0,0.0,0.0,0.0,0.0,0.0,0.0,0.0,0.0,0.0,0.0,0.0,0.0,0.0,0.0
1754715286622998513,720,1754715287242000000,MoraiInfo,0,0.4958700537681579,6.835092790424824e-05,-0.0430540405213832,21.46739139541626,-10.167001501861572,0.060776316300034494,2.253652811050415,-0.000120609998703,0.0185573864728212,0.4114990234375,0.0,0.0,0.0,0.0,0.0,0.0,0.0,0.0,0.0,0.0,0.0,0.0,0.0,0.0,0.0,0.0
1754715286636500557,721,1754715287276000000,MoraiInfo,0,-2.4665093421936035,0.004865676164627,-0.0272760428488254,21.543954276885987,-10.16645790750122,0.0610707278549671,2.204274892807007,-7.320940494537354e-05,0.0230728723108768,0.41351318359375,0.0,0.0,0.0,0.0,0.0,0.0,0.0,0.0,0.0,0.0,0.0,0.0,0.0,0.0,0.0,0.0
1754715286685776317,722,1754715287308000000,MoraiInfo,0,-1.9467703104019165,0.0043657198548316,0.0692610070109367,21.613615417327882,-10.165960566345214,0.0612723219394683,2.139211177825928,-6.108637899160385e-05,0.0262711644172668,0.41534423828125,0.0,0.0,0.0,0.0,0.0,0.0,0.0,0.0,0.0,0.0,0.0,0.0,0.0,0.0,0.0,0.0
1754715286718521131,723,1754715287308000000,MoraiInfo,0,-1.9467703104019165,0.0043657198548316,0.0692610070109367,21.613615417327882,-10.165960566345214,0.0612723219394683,2.139211177825928,-6.108637899160385e-05,0.0262711644172668,0.41534423828125,0.0,0.0,0.0,0.0,0.0,0.0,0.0,0.0,0.0,0.0,0.0,0.0,0.0,0.0,0.0,0.0
1754715286720962965,724,1754715287344000000,MoraiInfo,0,-1.7917191982269287,0.0042621232569217,0.0208537187427282,21.68274488433838,-10.165464655700683,0.0613988327980041,2.071840524673462,-5.608052015304565e-05,0.0276686362922191,0.4171142578125,1.0,0.0,0.0,0.0,0.0,0.0,0.0,0.0,0.0,0.0,0.0,0.0,0.0,0.0,0.0,0.0
1754715286764723131,725,1754715287377000000,MoraiInfo,0,-1.7384260892868042,0.0039485460147261,-0.0062214564532041,21.75844206794739,-10.164920107666015,0.0614680263400077,2.003802537918091,-5.457364022731781e-05,0.028303300961852,0.419097900390625,1.0,0.0,0.0,0.0,0.0,0.0,0.0,0.0,0.0,0.0,0.0,0.0,0.0,0.0,0.0,0.0
1754715286772667557,726,1754715287379000000,MoraiInfo,0,-1.7384260892868042,0.0039485460147261,-0.0062214564532041,21.75844206794739,-10.164920107666015,0.0614680263400077,2.003802537918091,-5.457364022731781e-05,0.028303300961852,0.419097900390625,1.0,0.0,0.0,0.0,0.0,0.0,0.0,0.0,0.0,0.0,0.0,0.0,0.0,0.0,0.0,0.0
1754715286796427014,727,1754715287407000000,MoraiInfo,0,3.4146170616149902,0.0012967381626367,0.0302887503057718,21.82873859390259,-10.16441704446411,0.0609497267007827,2.072178602218628,-9.482260793447496e-05,0.0222052838653326,0.42364501953125,1.0,0.0,0.0,0.0,0.0,0.0,0.0,0.0,0.0,0.0,0.0,0.0,0.0,0.0,0.0,0.0
1754715286804220893,728,1754715287442000000,MoraiInfo,0,2.1598384380340576,0.0042328312993049,-0.1153319254517555,21.88888969406128,-10.163985506835937,0.060753534287214195,2.1649744510650635,-0.0002004764974117,0.0188662037253379,0.428314208984375,0.0,0.0,0.0,0.0,0.0,0.0,0.0,0.0,0.0,0.0,0.0,0.0,0.0,0.0,0.0,0.0
1754715286827922780,729,1754715287442000000,MoraiInfo,0,2.1598384380340576,0.0042328312993049,-0.1153319254517555,21.88888969406128,-10.163985506835937,0.060753534287214195,2.1649744510650635,-0.0002004764974117,0.0188662037253379,0.428314208984375,0.0,0.0,0.0,0.0,0.0,0.0,0.0,0.0,0.0,0.0,0.0,0.0,0.0,0.0,0.0,0.0
1754715286834654692,730,1754715287477000000,MoraiInfo,0,2.324238538742065,0.0069098360836505,0.0545907020568847,21.967339420166017,-10.163405672851562,0.0606403432041406,2.211475610733032,-0.0002101939171552,0.0179624911397695,0.4305419921875,0.0,0.0,0.0,0.0,0.0,0.0,0.0,0.0,0.0,0.0,0.0,0.0,0.0,0.0,0.0,0.0
1754715286865191864,731,1754715287509000000,MoraiInfo,0,-2.4878411293029785,0.0027596708387136,-0.0502745471894741,22.04342856391907,-10.162840143981933,0.0610079399496316,2.191495180130005,-8.831173181533813e-05,0.0220874138176441,0.4324951171875,0.0,0.0,0.0,0.0,0.0,0.0,0.0,0.0,0.0,0.0,0.0,0.0,0.0,0.0,0.0,0.0
1754715286873957259,732,1754715287509000000,MoraiInfo,0,-2.4878411293029785,0.0027596708387136,-0.0502745471894741,22.04342856391907,-10.162840143981933,0.0610079399496316,2.191495180130005,-8.831173181533813e-05,0.0220874138176441,0.4324951171875,0.0,0.0,0.0,0.0,0.0,0.0,0.0,0.0,0.0,0.0,0.0,0.0,0.0,0.0,0.0,0.0
1754715286952799801,733,1754715287548000000,MoraiInfo,0,-1.9703654050827024,0.0032485071569681,0.085884191095829,22.11093034729004,-10.162334696594238,0.0612197916209697,2.126629590988159,-5.28283417224884e-05,0.0254711732268333,0.434051513671875,1.0,0.0,0.0,0.0,0.0,0.0,0.0,0.0,0.0,0.0,0.0,0.0,0.0,0.0,0.0,0.0
1754715286972188444,734,1754715287580000000,MoraiInfo,0,-1.8006523847579956,0.0034342762082815,0.0265719778835773,22.19518055900574,-10.161702887359619,0.061260479241609496,2.059355497360229,-5.1567330956459045e-05,0.027044404298067,0.43621826171875,1.0,0.0,0.0,0.0,0.0,0.0,0.0,0.0,0.0,0.0,0.0,0.0,0.0,0.0,0.0,0.0
1754715286998286065,735,1754715287580000000,MoraiInfo,0,-1.8006523847579956,0.0034342762082815,0.0265719778835773,22.19518055900574,-10.161702887359619,0.061260479241609496,2.059355497360229,-5.1567330956459045e-05,0.027044404298067,0.43621826171875,1.0,0.0,0.0,0.0,0.0,0.0,0.0,0.0,0.0,0.0,0.0,0.0,0.0,0.0,0.0,0.0
1754715286998531882,736,1754715287609000000,MoraiInfo,0,3.388680934906006,0.0013829842209815,0.0109984595328569,22.265132331695558,-10.161181704345703,0.0608509469032287,2.127204656600952,-9.263120591640472e-05,0.0207388866692781,0.44061279296875,1.0,0.0,0.0,0.0,0.0,0.0,0.0,0.0,0.0,0.0,0.0,0.0,0.0,0.0,0.0,0.0
1754715287015220676,737,1754715287644000000,MoraiInfo,0,2.139878273010254,0.003923911601305,-0.1186918020248413,22.323357963409425,-10.160743967834472,0.060700210481882,2.2192013263702397,-0.0001962855458259,0.0180476084351539,0.44415283203125,1.0,0.0,0.0,0.0,0.0,0.0,0.0,0.0,0.0,0.0,0.0,0.0,0.0,0.0,0.0,0.0
1754715287050783500,738,1754715287644000000,MoraiInfo,0,2.139878273010254,0.003923911601305,-0.1186918020248413,22.323357963409425,-10.160743967834472,0.060700210481882,2.2192013263702397,-0.0001962855458259,0.0180476084351539,0.44415283203125,1.0,0.0,0.0,0.0,0.0,0.0,0.0,0.0,0.0,0.0,0.0,0.0,0.0,0.0,0.0,0.0
1754715287061198869,739,1754715287678000000,MoraiInfo,0,1.233620285987854,0.0066966228187084,0.0490280017256736,22.400649452056886,-10.160150782409668,0.0607351965457201,2.2438740730285645,-7.227063179016113e-05,0.0189136546105146,0.44549560546875,0.0,0.0,0.0,0.0,0.0,0.0,0.0,0.0,0.0,0.0,0.0,0.0,0.0,0.0,0.0,0.0
1754715287071570363,740,1754715287711000000,MoraiInfo,0,0.1872738599777221,0.0047477269545197,0.0020686690695583,22.479416751708985,-10.159544722381591,0.0609748128056526,2.257462978363037,-7.12517648935318e-05,0.0194542445242404,0.44769287109375,0.0,0.0,0.0,0.0,0.0,0.0,0.0,0.0,0.0,0.0,0.0,0.0,0.0,0.0,0.0,0.0
1754715287100669308,741,1754715287711000000,MoraiInfo,0,0.1872738599777221,0.0047477269545197,0.0020686690695583,22.479416751708985,-10.159544722381591,0.0609748128056526,2.257462978363037,-7.12517648935318e-05,0.0194542445242404,0.44769287109375,0.0,0.0,0.0,0.0,0.0,0.0,0.0,0.0,0.0,0.0,0.0,0.0,0.0,0.0,0.0,0.0
1754715287127977198,742,1754715287744000000,MoraiInfo,0,-1.3112045526504517,0.0043014693073928,-0.0834353789687156,22.553436660614015,-10.158971564117431,0.0611617031693458,2.1818528175354004,-6.234273314476013e-05,0.0228942204266786,0.449462890625,0.0,0.0,0.0,0.0,0.0,0.0,0.0,0.0,0.0,0.0,0.0,0.0,0.0,0.0,0.0,0.0
1754715287133619227,743,1754715287776000000,MoraiInfo,0,-1.941146731376648,0.0006932998076081,0.063427597284317,22.617929124679566,-10.158471361938476,0.0613085056841373,2.143001079559326,-9.232945740222932e-05,0.0267194379121065,0.4510498046875,0.0,0.0,0.0,0.0,0.0,0.0,0.0,0.0,0.0,0.0,0.0,0.0,0.0,0.0,0.0,0.0
1754715287158895594,744,1754715287776000000,MoraiInfo,0,-1.941146731376648,0.0006932998076081,0.063427597284317,22.617929124679566,-10.158471361938476,0.0613085056841373,2.143001079559326,-9.232945740222932e-05,0.0267194379121065,0.4510498046875,0.0,0.0,0.0,0.0,0.0,0.0,0.0,0.0,0.0,0.0,0.0,0.0,0.0,0.0,0.0,0.0
1754715287177129465,745,1754715287813000000,MoraiInfo,0,-1.7893433570861816,0.0011544534936547,0.0188445001840591,22.68666400894165,-10.157935873809816,0.0614277820289135,2.07561469078064,-8.296594023704529e-05,0.0279885437339544,0.452789306640625,0.0,0.0,0.0,0.0,0.0,0.0,0.0,0.0,0.0,0.0,0.0,0.0,0.0,0.0,0.0,0.0
1754715287203906644,746,1754715287844000000,MoraiInfo,0,-1.737473964691162,0.0014472417533397,-0.0071900165639817,22.762450122680665,-10.157342211547851,0.061513631343841496,2.0075724124908447,-7.673725485801697e-05,0.0285304766148328,0.4547119140625,1.0,0.0,0.0,0.0,0.0,0.0,0.0,0.0,0.0,0.0,0.0,0.0,0.0,0.0,0.0,0.0
1754715287231686693,747,1754715287844000000,MoraiInfo,0,-1.737473964691162,0.0014472417533397,-0.0071900165639817,22.762450122680665,-10.157342211547851,0.061513631343841496,2.0075724124908447,-7.673725485801697e-05,0.0285304766148328,0.4547119140625,1.0,0.0,0.0,0.0,0.0,0.0,0.0,0.0,0.0,0.0,0.0,0.0,0.0,0.0,0.0,0.0
1754715287259925341,748,1754715287876000000,MoraiInfo,0,-1.6926686763763428,0.002115006558597,-0.0309586264193058,22.823029422607423,-10.15686775857544,0.0615638110041618,1.973711371421814,-6.915722042322159e-05,0.0284254942089319,0.456298828125,1.0,0.0,0.0,0.0,0.0,0.0,0.0,0.0,0.0,0.0,0.0,0.0,0.0,0.0,0.0,0.0
1754715287271572867,749,1754715287912000000,MoraiInfo,0,3.449836015701294,0.0020236447453498,0.0373431779444217,22.886145019378663,-10.156376139465332,0.0610215447098016,2.0084116458892822,-0.000115318223834,0.022570202127099,0.46051025390625,1.0,0.0,0.0,0.0,0.0,0.0,0.0,0.0,0.0,0.0,0.0,0.0,0.0,0.0,0.0,0.0
1754715287297535626,750,1754715287912000000,MoraiInfo,0,3.449836015701294,0.0020236447453498,0.0373431779444217,22.886145019378663,-10.156376139465332,0.0610215447098016,2.0084116458892822,-0.000115318223834,0.022570202127099,0.46051025390625,1.0,0.0,0.0,0.0,0.0,0.0,0.0,0.0,0.0,0.0,0.0,0.0,0.0,0.0,0.0,0.0
1754715287304127238,751,1754715287944000000,MoraiInfo,0,2.186084270477295,0.0066138487309217,-0.11468206346035,22.961060428466798,-10.155791060272216,0.0607651981711387,2.1022703647613525,-0.0001780372112989,0.0189664997160434,0.467498779296875,0.0,0.0,0.0,0.0,0.0,0.0,0.0,0.0,0.0,0.0,0.0,0.0,0.0,0.0,0.0,0.0
1754715287336787965,752,1754715287976000000,MoraiInfo,0,2.3430066108703613,0.0062224622815847,-0.0009459887514822,23.037345313873292,-10.155186907592773,0.0605971633642911,2.1971113681793213,-0.0002513360232114,0.0161776840686798,0.47479248046875,0.0,0.0,0.0,0.0,0.0,0.0,0.0,0.0,0.0,0.0,0.0,0.0,0.0,0.0,0.0,0.0
1754715287368333486,753,1754715287976000000,MoraiInfo,0,2.3430066108703613,0.0062224622815847,-0.0009459887514822,23.037345313873292,-10.155186907592773,0.0605971633642911,2.1971113681793213,-0.0002513360232114,0.0161776840686798,0.47479248046875,0.0,0.0,0.0,0.0,0.0,0.0,0.0,0.0,0.0,0.0,0.0,0.0,0.0,0.0,0.0,0.0
1754715287370565370,754,1754715288013000000,MoraiInfo,0,-2.675167798995972,0.0072462167590856,-0.0316824465990066,23.102221393432618,-10.1546595256958,0.0609878699481487,2.1435513496398926,-0.0001930464059114,0.0219263043254613,0.4779052734375,0.0,0.0,0.0,0.0,0.0,0.0,0.0,0.0,0.0,0.0,0.0,0.0,0.0,0.0,0.0,0.0
1754715287409821291,755,1754715288044000000,MoraiInfo,0,-2.0400750637054443,0.0048016374930739,0.1181722804903984,23.178261661376954,-10.154034869018554,0.0612180668115615,2.0796244144439697,-0.0001216083765029,0.0249698143452405,0.480682373046875,0.0,0.0,0.0,0.0,0.0,0.0,0.0,0.0,0.0,0.0,0.0,0.0,0.0,0.0,0.0,0.0
1754715287410684953,756,1754715288044000000,MoraiInfo,0,-2.0400750637054443,0.0048016374930739,0.1181722804903984,23.178261661376954,-10.154034869018554,0.0612180668115615,2.0796244144439697,-0.0001216083765029,0.0249698143452405,0.480682373046875,0.0,0.0,0.0,0.0,0.0,0.0,0.0,0.0,0.0,0.0,0.0,0.0,0.0,0.0,0.0,0.0
1754715287455348500,757,1754715288079000000,MoraiInfo,0,-1.5202347040176392,0.0018582763150334,-0.1012162864208221,23.239664935913087,-10.153526083770751,0.0613472338020801,2.049208641052246,-0.000126788392663,0.0238902084529399,0.4825439453125,1.0,0.0,0.0,0.0,0.0,0.0,0.0,0.0,0.0,0.0,0.0,0.0,0.0,0.0,0.0,0.0
1754715287484845038,758,1754715288112000000,MoraiInfo,0,-1.642883539199829,0.0007168231531977,-0.0528615042567253,23.313855075683595,-10.152911440673828,0.0610592371970415,1.9798115491867063,-0.0001036487519741,0.0261152107268571,0.485809326171875,1.0,0.0,0.0,0.0,0.0,0.0,0.0,0.0,0.0,0.0,0.0,0.0,0.0,0.0,0.0,0.0
1754715287516805754,759,1754715288112000000,MoraiInfo,0,-1.642883539199829,0.0007168231531977,-0.0528615042567253,23.313855075683595,-10.152911440673828,0.0610592371970415,1.9798115491867063,-0.0001036487519741,0.0261152107268571,0.485809326171875,1.0,0.0,0.0,0.0,0.0,0.0,0.0,0.0,0.0,0.0,0.0,0.0,0.0,0.0,0.0,0.0
1754715287521386575,760,1754715288144000000,MoraiInfo,0,2.480760335922241,0.003772435709834,0.1592398881912231,23.381270313110353,-10.152353064361572,0.0608148935437202,2.0981225967407227,-0.000178026035428,0.0222652275115251,0.4910888671875,1.0,0.0,0.0,0.0,0.0,0.0,0.0,0.0,0.0,0.0,0.0,0.0,0.0,0.0,0.0,0.0
1754715287533725028,761,1754715288177000000,MoraiInfo,0,2.17692494392395,0.0071449838578701,-0.1082269996404647,23.44793977722168,-10.151798025909423,0.0606252781301736,2.141683340072632,-0.0001855753362178,0.0178706105798482,0.4971923828125,0.0,0.0,0.0,0.0,0.0,0.0,0.0,0.0,0.0,0.0,0.0,0.0,0.0,0.0,0.0,0.0
1754715287556694519,762,1754715288177000000,MoraiInfo,0,2.17692494392395,0.0071449838578701,-0.1082269996404647,23.44793977722168,-10.151798025909423,0.0606252781301736,2.141683340072632,-0.0001855753362178,0.0178706105798482,0.4971923828125,0.0,0.0,0.0,0.0,0.0,0.0,0.0,0.0,0.0,0.0,0.0,0.0,0.0,0.0,0.0,0.0
1754715287589742618,763,1754715288210000000,MoraiInfo,0,2.3376502990722656,0.0061466228216886,-0.0015205543022602,23.522602939453126,-10.151161448303222,0.060782826244831,2.2352182865142822,-0.0002585258334875,0.0154692791402339,0.5010986328125,0.0,0.0,0.0,0.0,0.0,0.0,0.0,0.0,0.0,0.0,0.0,0.0,0.0,0.0,0.0,0.0
1754715287604984986,764,1754715288245000000,MoraiInfo,0,-1.080896496772766,0.0015943245962262,-0.160539910197258,23.593212985839845,-10.150548712554931,0.0610021135956048,2.15688157081604,-9.630247950553894e-05,0.0191340167075395,0.502105712890625,0.0,0.0,0.0,0.0,0.0,0.0,0.0,0.0,0.0,0.0,0.0,0.0,0.0,0.0,0.0,0.0
1754715287632088846,765,1754715288245000000,MoraiInfo,0,-1.080896496772766,0.0015943245962262,-0.160539910197258,23.593212985839845,-10.150548712554931,0.0610021135956048,2.15688157081604,-9.630247950553894e-05,0.0191340167075395,0.502105712890625,0.0,0.0,0.0,0.0,0.0,0.0,0.0,0.0,0.0,0.0,0.0,0.0,0.0,0.0,0.0,0.0
1754715287637963962,766,1754715288277000000,MoraiInfo,0,-1.497517704963684,0.0001832786947488,-0.1091571003198623,23.669537925567628,-10.149884478393554,0.0612249902635812,2.085277318954468,-8.556433022022247e-05,0.0239171627908945,0.503692626953125,0.0,0.0,0.0,0.0,0.0,0.0,0.0,0.0,0.0,0.0,0.0,0.0,0.0,0.0,0.0,0.0
1754715287670073108,767,1754715288310000000,MoraiInfo,0,-1.838948130607605,0.0036564944311976,0.0456815920770168,23.732243442382813,-10.149338499847412,0.0613688591122627,2.0484766960144043,-4.830583930015564e-05,0.0266581382602453,0.505218505859375,0.0,0.0,0.0,0.0,0.0,0.0,0.0,0.0,0.0,0.0,0.0,0.0,0.0,0.0,0.0,0.0
1754715287697016595,768,1754715288310000000,MoraiInfo,0,-1.838948130607605,0.0036564944311976,0.0456815920770168,23.732243442382813,-10.149338499847412,0.0613688591122627,2.0484766960144043,-4.830583930015564e-05,0.0266581382602453,0.505218505859375,0.0,0.0,0.0,0.0,0.0,0.0,0.0,0.0,0.0,0.0,0.0,0.0,0.0,0.0,0.0,0.0
1754715287705280177,769,1754715288346000000,MoraiInfo,0,-1.7553476095199585,0.0036422405391931,0.0033486415632069,23.797991180267335,-10.148763434234619,0.0614657613635063,1.9806421995162964,-4.90974634885788e-05,0.0274636503309011,0.50689697265625,1.0,0.0,0.0,0.0,0.0,0.0,0.0,0.0,0.0,0.0,0.0,0.0,0.0,0.0,0.0,0.0
1754715287761738490,770,1754715288378000000,MoraiInfo,0,-1.7253941297531128,0.0033700997009873,-0.0138988122344017,23.865855121459962,-10.148168341461181,0.061535346060991196,1.9124622344970703,-5.240924656391144e-05,0.0276972148567438,0.5086669921875,1.0,0.0,0.0,0.0,0.0,0.0,0.0,0.0,0.0,0.0,0.0,0.0,0.0,0.0,0.0,0.0
1754715287765251213,771,1754715288378000000,MoraiInfo,0,-1.7253941297531128,0.0033700997009873,-0.0138988122344017,23.865855121459962,-10.148168341461181,0.061535346060991196,1.9124622344970703,-5.240924656391144e-05,0.0276972148567438,0.5086669921875,1.0,0.0,0.0,0.0,0.0,0.0,0.0,0.0,0.0,0.0,0.0,0.0,0.0,0.0,0.0,0.0
1754715287770480078,772,1754715288411000000,MoraiInfo,0,3.4679808616638184,0.0013409629464149,0.0350554995238781,23.935086154785157,-10.14756609613037,0.0609760645031929,1.981905698776245,-9.142421185970306e-05,0.0218132864683866,0.513397216796875,1.0,0.0,0.0,0.0,0.0,0.0,0.0,0.0,0.0,0.0,0.0,0.0,0.0,0.0,0.0,0.0
1754715287823855521,773,1754715288447000000,MoraiInfo,0,2.195709228515625,0.0056379660964012,-0.1157360151410102,23.996833228912354,-10.147026316467285,0.0607574123144149,2.076237916946411,-0.0001703053712844,0.0184087958186864,0.518951416015625,0.0,0.0,0.0,0.0,0.0,0.0,0.0,0.0,0.0,0.0,0.0,0.0,0.0,0.0,0.0,0.0
1754715287830346690,774,1754715288447000000,MoraiInfo,0,2.195709228515625,0.0056379660964012,-0.1157360151410102,23.996833228912354,-10.147026316467285,0.0607574123144149,2.076237916946411,-0.0001703053712844,0.0184087958186864,0.518951416015625,0.0,0.0,0.0,0.0,0.0,0.0,0.0,0.0,0.0,0.0,0.0,0.0,0.0,0.0,0.0,0.0
1754715287858980301,775,1754715288478000000,MoraiInfo,0,2.3544564247131348,0.0056330040097236,-0.0009863594314083,24.07749643310547,-10.146314398590087,0.0605974502116441,2.17155122756958,-0.0002454947680234,0.0157494135200977,0.526580810546875,0.0,0.0,0.0,0.0,0.0,0.0,0.0,0.0,0.0,0.0,0.0,0.0,0.0,0.0,0.0,0.0
1754715287871363910,776,1754715288511000000,MoraiInfo,0,-2.4454965591430664,0.007557145319879,-0.0286701209843158,24.14405145629883,-10.145707384887695,0.060970305204391395,2.122589588165283,-8.502788841724396e-05,0.0211786124855279,0.527313232421875,0.0,0.0,0.0,0.0,0.0,0.0,0.0,0.0,0.0,0.0,0.0,0.0,0.0,0.0,0.0,0.0
1754715287899205164,777,1754715288511000000,MoraiInfo,0,-2.4454965591430664,0.007557145319879,-0.0286701209843158,24.14405145629883,-10.145707384887695,0.060970305204391395,2.122589588165283,-8.502788841724396e-05,0.0211786124855279,0.527313232421875,0.0,0.0,0.0,0.0,0.0,0.0,0.0,0.0,0.0,0.0,0.0,0.0,0.0,0.0,0.0,0.0
1754715287924587339,778,1754715288547000000,MoraiInfo,0,-1.9820716381073,0.0043183853849768,0.1052069514989852,24.21116342529297,-10.145096079650878,0.0611976075172424,2.0576741695404053,-6.057694554328919e-05,0.0242518167942762,0.529022216796875,0.0,0.0,0.0,0.0,0.0,0.0,0.0,0.0,0.0,0.0,0.0,0.0,0.0,0.0,0.0,0.0
1754715287954789537,779,1754715288579000000,MoraiInfo,0,-1.8059749603271484,0.0041051562875509,0.0311117283999919,24.287010097351075,-10.144400851074218,0.0613549973070621,1.9904485940933228,-5.123205482959747e-05,0.0258321575820446,0.531005859375,1.0,0.0,0.0,0.0,0.0,0.0,0.0,0.0,0.0,0.0,0.0,0.0,0.0,0.0,0.0,0.0
1754715287961011478,780,1754715288579000000,MoraiInfo,0,-1.8059749603271484,0.0041051562875509,0.0311117283999919,24.287010097351075,-10.144400851074218,0.0613549973070621,1.9904485940933228,-5.123205482959747e-05,0.0258321575820446,0.531005859375,1.0,0.0,0.0,0.0,0.0,0.0,0.0,0.0,0.0,0.0,0.0,0.0,0.0,0.0,0.0,0.0
1754715287984824134,781,1754715288613000000,MoraiInfo,0,-1.654545783996582,-0.000261784531176,-0.0468596182763576,24.34705104812622,-10.143850104156494,0.0614426682889461,1.9573465585708616,-9.169243276119232e-05,0.0257499460130929,0.532562255859375,1.0,0.0,0.0,0.0,0.0,0.0,0.0,0.0,0.0,0.0,0.0,0.0,0.0,0.0,0.0,0.0
1754715288022392600,782,1754715288647000000,MoraiInfo,0,3.466567039489746,0.0012373216450214,0.0290019754320383,24.411816978302003,-10.143257395568847,0.0609525541961193,1.991868257522583,-8.921511471271515e-05,0.0208112671971321,0.536102294921875,1.0,0.0,0.0,0.0,0.0,0.0,0.0,0.0,0.0,0.0,0.0,0.0,0.0,0.0,0.0,0.0
1754715288044869836,783,1754715288647000000,MoraiInfo,0,3.466567039489746,0.0012373216450214,0.0290019754320383,24.411816978302003,-10.143257395568847,0.0609525541961193,1.991868257522583,-8.921511471271515e-05,0.0208112671971321,0.536102294921875,1.0,0.0,0.0,0.0,0.0,0.0,0.0,0.0,0.0,0.0,0.0,0.0,0.0,0.0,0.0,0.0
1754715288046810852,784,1754715288679000000,MoraiInfo,0,2.192770004272461,0.0049303099513053,-0.1168065592646598,24.48364009841919,-10.142600790802001,0.0607309422641992,2.086118698120117,-0.0001782570034265,0.0177601799368858,0.5423583984375,1.0,0.0,0.0,0.0,0.0,0.0,0.0,0.0,0.0,0.0,0.0,0.0,0.0,0.0,0.0,0.0
1754715288069454886,785,1754715288712000000,MoraiInfo,0,2.4065825939178467,0.0073811206966638,0.0553657263517379,24.55149784072876,-10.141975657287597,0.0605637083947658,2.1342661380767822,-0.0002075992524623,0.0169081948697567,0.54937744140625,0.0,0.0,0.0,0.0,0.0,0.0,0.0,0.0,0.0,0.0,0.0,0.0,0.0,0.0,0.0,0.0
1754715288106182108,786,1754715288712000000,MoraiInfo,0,2.4065825939178467,0.0073811206966638,0.0553657263517379,24.55149784072876,-10.141975657287597,0.0605637083947658,2.1342661380767822,-0.0002075992524623,0.0169081948697567,0.54937744140625,0.0,0.0,0.0,0.0,0.0,0.0,0.0,0.0,0.0,0.0,0.0,0.0,0.0,0.0,0.0,0.0
1754715288110195814,787,1754715288748000000,MoraiInfo,0,2.3139190673828125,0.0086073540151119,0.0101194819435477,24.62648668273926,-10.141270891967773,0.0606250676512718,2.227583408355713,-0.0002509746700525,0.0142736183479428,0.55487060546875,0.0,0.0,0.0,0.0,0.0,0.0,0.0,0.0,0.0,0.0,0.0,0.0,0.0,0.0,0.0,0.0
1754715288156761543,788,1754715288781000000,MoraiInfo,0,-1.128415822982788,0.0028097219765186,-0.1544520407915115,24.704995536651612,-10.140515105072021,0.0609539325535297,2.15024733543396,-7.979758083820343e-05,0.0183652248233556,0.5555419921875,0.0,0.0,0.0,0.0,0.0,0.0,0.0,0.0,0.0,0.0,0.0,0.0,0.0,0.0,0.0,0.0
1754715288169652623,789,1754715288781000000,MoraiInfo,0,-1.128415822982788,0.0028097219765186,-0.1544520407915115,24.704995536651612,-10.140515105072021,0.0609539325535297,2.15024733543396,-7.979758083820343e-05,0.0183652248233556,0.5555419921875,0.0,0.0,0.0,0.0,0.0,0.0,0.0,0.0,0.0,0.0,0.0,0.0,0.0,0.0,0.0,0.0
1754715288213129862,790,1754715288813000000,MoraiInfo,0,-2.055079698562622,0.0019280537962913,0.1225189641118049,24.7715434072876,-10.139874712768554,0.061180601567029896,2.1091132164001465,-6.627477705478668e-05,0.0243109837174415,0.55682373046875,0.0,0.0,0.0,0.0,0.0,0.0,0.0,0.0,0.0,0.0,0.0,0.0,0.0,0.0,0.0,0.0
1754715288236553583,791,1754715288847000000,MoraiInfo,0,-1.8305363655090328,0.0022654458880424,0.0423396117985248,24.83573904022217,-10.139255301300048,0.0613353948295116,2.042213201522827,-5.755014717578888e-05,0.0261098425835371,0.558349609375,1.0,0.0,0.0,0.0,0.0,0.0,0.0,0.0,0.0,0.0,0.0,0.0,0.0,0.0,0.0,0.0
1754715288236574945,792,1754715288847000000,MoraiInfo,0,-1.8305363655090328,0.0022654458880424,0.0423396117985248,24.83573904022217,-10.139255301300048,0.0613353948295116,2.042213201522827,-5.755014717578888e-05,0.0261098425835371,0.558349609375,1.0,0.0,0.0,0.0,0.0,0.0,0.0,0.0,0.0,0.0,0.0,0.0,0.0,0.0,0.0,0.0
1754715288251376795,793,1754715288881000000,MoraiInfo,0,-1.752496361732483,0.0024394243955612,0.0021933983080089,24.90406408294678,-10.138595358673095,0.0614059369266033,1.974327564239502,-5.912594497203827e-05,0.0270904377102851,0.56011962890625,1.0,0.0,0.0,0.0,0.0,0.0,0.0,0.0,0.0,0.0,0.0,0.0,0.0,0.0,0.0,0.0
1754715288271198811,794,1754715288913000000,MoraiInfo,0,3.435955286026001,0.0016976445913314,0.0259179044514894,24.976352596130372,-10.137901083770751,0.060902896076440796,2.04312515258789,-9.956024587154388e-05,0.0211061276495456,0.565185546875,1.0,0.0,0.0,0.0,0.0,0.0,0.0,0.0,0.0,0.0,0.0,0.0,0.0,0.0,0.0,0.0
1754715288301438330,795,1754715288913000000,MoraiInfo,0,3.435955286026001,0.0016976445913314,0.0259179044514894,24.976352596130372,-10.137901083770751,0.060902896076440796,2.04312515258789,-9.956024587154388e-05,0.0211061276495456,0.565185546875,1.0,0.0,0.0,0.0,0.0,0.0,0.0,0.0,0.0,0.0,0.0,0.0,0.0,0.0,0.0,0.0
1754715288322527594,796,1754715288947000000,MoraiInfo,0,2.1740286350250244,0.0056616310030221,-0.1166498363018035,25.044180774536134,-10.137246386352539,0.060691836029291096,2.1365389823913574,-0.000181496143341,0.0180700533092021,0.571014404296875,0.0,0.0,0.0,0.0,0.0,0.0,0.0,0.0,0.0,0.0,0.0,0.0,0.0,0.0,0.0,0.0
1754715288341520846,797,1754715288981000000,MoraiInfo,0,2.340716600418091,0.0053919125348329,-0.0025534129235893,25.116343402709962,-10.136543528381347,0.0605480491369962,2.230128526687622,-0.0002412907779216,0.0156204439699649,0.577178955078125,0.0,0.0,0.0,0.0,0.0,0.0,0.0,0.0,0.0,0.0,0.0,0.0,0.0,0.0,0.0,0.0
1754715288360424763,798,1754715288981000000,MoraiInfo,0,2.340716600418091,0.0053919125348329,-0.0025534129235893,25.116343402709962,-10.136543528381347,0.0605480491369962,2.230128526687622,-0.0002412907779216,0.0156204439699649,0.577178955078125,0.0,0.0,0.0,0.0,0.0,0.0,0.0,0.0,0.0,0.0,0.0,0.0,0.0,0.0,0.0,0.0
1754715288368657182,799,1754715289012000000,MoraiInfo,0,-2.7779335975646973,0.0073758121579885,-0.0289623588323593,25.193018817749024,-10.13577582055664,0.0609588015079498,2.1745121479034424,-6.854906678199768e-05,0.0218234695494174,0.577606201171875,0.0,0.0,0.0,0.0,0.0,0.0,0.0,0.0,0.0,0.0,0.0,0.0,0.0,0.0,0.0,0.0
1754715288434227374,800,1754715289047000000,MoraiInfo,0,-2.0666844844818115,0.0042902324348688,0.1253037452697754,25.26038684829712,-10.135100619140625,0.0612011390924453,2.111013889312744,-4.962831735610962e-05,0.0251182597130537,0.5791015625,0.0,0.0,0.0,0.0,0.0,0.0,0.0,0.0,0.0,0.0,0.0,0.0,0.0,0.0,0.0,0.0
1754715288452024750,801,1754715289047000000,MoraiInfo,0,-2.0666844844818115,0.0042902324348688,0.1253037452697754,25.26038684829712,-10.135100619140625,0.0612011390924453,2.111013889312744,-4.962831735610962e-05,0.0251182597130537,0.5791015625,0.0,0.0,0.0,0.0,0.0,0.0,0.0,0.0,0.0,0.0,0.0,0.0,0.0,0.0,0.0,0.0
1754715288472960453,802,1754715289083000000,MoraiInfo,0,-1.8343697786331177,0.0043061198666691,0.0437446422874927,25.32967462524414,-10.134405390563964,0.0613493087887764,2.044187545776367,-4.569254815578461e-05,0.0266253985464572,0.580810546875,1.0,0.0,0.0,0.0,0.0,0.0,0.0,0.0,0.0,0.0,0.0,0.0,0.0,0.0,0.0,0.0
1754715288478131951,803,1754715289115000000,MoraiInfo,0,-1.7537353038787842,0.0040094424039125,0.0025729064363986,25.406084918823243,-10.133636729064941,0.061455535441636996,1.9763323068618772,-4.785507917404175e-05,0.0274234563112258,0.582733154296875,1.0,0.0,0.0,0.0,0.0,0.0,0.0,0.0,0.0,0.0,0.0,0.0,0.0,0.0,0.0,0.0
1754715288483564104,804,1754715289115000000,MoraiInfo,0,-1.7537353038787842,0.0040094424039125,0.0025729064363986,25.406084918823243,-10.133636729064941,0.061455535441636996,1.9763323068618772,-4.785507917404175e-05,0.0274234563112258,0.582733154296875,1.0,0.0,0.0,0.0,0.0,0.0,0.0,0.0,0.0,0.0,0.0,0.0,0.0,0.0,0.0,0.0
1754715288504617817,805,1754715289146000000,MoraiInfo,0,3.433929920196533,0.0011490061879158,0.0255409255623817,25.46505346282959,-10.133045450988769,0.0609481099247932,2.045091152191162,-8.806586265563965e-05,0.0213737580925226,0.586212158203125,1.0,0.0,0.0,0.0,0.0,0.0,0.0,0.0,0.0,0.0,0.0,0.0,0.0,0.0,0.0,0.0
1754715288567168621,806,1754715289182000000,MoraiInfo,0,2.1729464530944824,0.0049314610660076,-0.1168264523148536,25.534010791625978,-10.13235546762085,0.060739065259694996,2.138460636138916,-0.0001822486519813,0.0182593986392021,0.591888427734375,0.0,0.0,0.0,0.0,0.0,0.0,0.0,0.0,0.0,0.0,0.0,0.0,0.0,0.0,0.0,0.0
1754715288583518160,807,1754715289182000000,MoraiInfo,0,2.1729464530944824,0.0049314610660076,-0.1168264523148536,25.534010791625978,-10.13235546762085,0.060739065259694996,2.138460636138916,-0.0001822486519813,0.0182593986392021,0.591888427734375,0.0,0.0,0.0,0.0,0.0,0.0,0.0,0.0,0.0,0.0,0.0,0.0,0.0,0.0,0.0,0.0
1754715288583550874,808,1754715289213000000,MoraiInfo,0,2.335570335388184,0.0066056754440069,0.0551051758229732,25.612123393859864,-10.131565348449707,0.0605558778345584,2.185187816619873,-0.0001996010541915,0.0174439158290624,0.598602294921875,0.0,0.0,0.0,0.0,0.0,0.0,0.0,0.0,0.0,0.0,0.0,0.0,0.0,0.0,0.0,0.0
1754715288628870953,809,1754715289247000000,MoraiInfo,0,-2.7980968952178955,0.0074965395033359,-0.0293117985129356,25.67817773803711,-10.130878702941896,0.0609709124267101,2.175966262817383,-6.597116589546204e-05,0.0219660066068172,0.599151611328125,0.0,0.0,0.0,0.0,0.0,0.0,0.0,0.0,0.0,0.0,0.0,0.0,0.0,0.0,0.0,0.0
1754715288635860473,810,1754715289248000000,MoraiInfo,0,-2.7980968952178955,0.0074965395033359,-0.0293117985129356,25.67817773803711,-10.130878702941896,0.0609709124267101,2.175966262817383,-6.597116589546204e-05,0.0219660066068172,0.599151611328125,0.0,0.0,0.0,0.0,0.0,0.0,0.0,0.0,0.0,0.0,0.0,0.0,0.0,0.0,0.0,0.0
1754715288666241907,811,1754715289280000000,MoraiInfo,0,-2.0717263221740723,0.0043729394674301,0.1263027042150497,25.752655887451173,-10.130105273071289,0.0611943255364894,2.112557411193848,-4.931911826133728e-05,0.0252278503030538,0.600921630859375,0.0,0.0,0.0,0.0,0.0,0.0,0.0,0.0,0.0,0.0,0.0,0.0,0.0,0.0,0.0,0.0
1754715288673445551,812,1754715289314000000,MoraiInfo,0,-1.5023444890975952,-0.0005949363112449,-0.1076819822192192,25.822574519958497,-10.12937761956787,0.061322911381721495,2.0824990272521973,-9.65166836977005e-05,0.0240172743797302,0.60260009765625,0.0,0.0,0.0,0.0,0.0,0.0,0.0,0.0,0.0,0.0,0.0,0.0,0.0,0.0,0.0,0.0
1754715288705280401,813,1754715289314000000,MoraiInfo,0,-1.5023444890975952,-0.0005949363112449,-0.1076819822192192,25.822574519958497,-10.12937761956787,0.061322911381721495,2.0824990272521973,-9.65166836977005e-05,0.0240172743797302,0.60260009765625,0.0,0.0,0.0,0.0,0.0,0.0,0.0,0.0,0.0,0.0,0.0,0.0,0.0,0.0,0.0,0.0
1754715288734980998,814,1754715289347000000,MoraiInfo,0,-1.6367443799972534,-0.0007540825754404,-0.0555398352444171,25.8901580809021,-10.128672377410888,0.0614243026077747,2.0130112171173096,-9.475089609622957e-05,0.0264071747660636,0.60430908203125,1.0,0.0,0.0,0.0,0.0,0.0,0.0,0.0,0.0,0.0,0.0,0.0,0.0,0.0,0.0,0.0
1754715288747167700,815,1754715289382000000,MoraiInfo,0,-1.6833093166351318,-0.0004760976880788,-0.0350826419889926,25.953710937347413,-10.128008143249511,0.0614510650932788,1.944236397743225,-9.158067405223846e-05,0.0273723863065242,0.6060791015625,1.0,0.0,0.0,0.0,0.0,0.0,0.0,0.0,0.0,0.0,0.0,0.0,0.0,0.0,0.0,0.0
1754715288766395538,816,1754715289382000000,MoraiInfo,0,-1.6833093166351318,-0.0004760976880788,-0.0350826419889926,25.953710937347413,-10.128008143249511,0.0614510650932788,1.944236397743225,-9.158067405223846e-05,0.0273723863065242,0.6060791015625,1.0,0.0,0.0,0.0,0.0,0.0,0.0,0.0,0.0,0.0,0.0,0.0,0.0,0.0,0.0,0.0
1754715288806959704,817,1754715289417000000,MoraiInfo,0,3.4487690925598145,0.0029125660657882,0.0485484451055526,26.02459754928589,-10.127271429840087,0.0609435725212097,2.0132925510406494,-0.0001306589692831,0.0218237545341253,0.611114501953125,1.0,0.0,0.0,0.0,0.0,0.0,0.0,0.0,0.0,0.0,0.0,0.0,0.0,0.0,0.0,0.0
1754715288812397355,818,1754715289448000000,MoraiInfo,0,2.186684846878052,0.0072079822421073,-0.1118034273386001,26.104854965057374,-10.126434103790283,0.0606807234883308,2.1070706844329834,-0.0001936480402946,0.018409788608551,0.61859130859375,1.0,0.0,0.0,0.0,0.0,0.0,0.0,0.0,0.0,0.0,0.0,0.0,0.0,0.0,0.0,0.0
1754715288837242328,819,1754715289448000000,MoraiInfo,0,2.186684846878052,0.0072079822421073,-0.1118034273386001,26.104854965057374,-10.126434103790283,0.0606807234883308,2.1070706844329834,-0.0001936480402946,0.018409788608551,0.61859130859375,1.0,0.0,0.0,0.0,0.0,0.0,0.0,0.0,0.0,0.0,0.0,0.0,0.0,0.0,0.0,0.0
1754715288891234699,820,1754715289482000000,MoraiInfo,0,2.3408589363098145,0.0073846466839313,-0.0006125660147517,26.174903774108888,-10.12569166833496,0.0605398106575012,2.2018439769744877,-0.0002395082265138,0.0157956518232822,0.623626708984375,0.0,0.0,0.0,0.0,0.0,0.0,0.0,0.0,0.0,0.0,0.0,0.0,0.0,0.0,0.0,0.0
1754715288909796191,821,1754715289516000000,MoraiInfo,0,1.915793538093567,0.0063492339104413,0.0079011879861354,26.24824323638916,-10.124898688140869,0.060604837462305994,2.2401647567749023,-7.305853068828583e-05,0.0152487326413393,0.6246337890625,0.0,0.0,0.0,0.0,0.0,0.0,0.0,0.0,0.0,0.0,0.0,0.0,0.0,0.0,0.0,0.0
1754715288911442022,822,1754715289516000000,MoraiInfo,0,1.915793538093567,0.0063492339104413,0.0079011879861354,26.24824323638916,-10.124898688140869,0.060604837462305994,2.2401647567749023,-7.305853068828583e-05,0.0152487326413393,0.6246337890625,0.0,0.0,0.0,0.0,0.0,0.0,0.0,0.0,0.0,0.0,0.0,0.0,0.0,0.0,0.0,0.0
1754715288949152107,823,1754715289548000000,MoraiInfo,0,-2.4662106037139893,0.0032764840871095,-0.0581936314702034,26.319039726104737,-10.12413384133911,0.0609640690684318,2.2007572650909424,-0.0001037865877151,0.0207106135785579,0.626861572265625,0.0,0.0,0.0,0.0,0.0,0.0,0.0,0.0,0.0,0.0,0.0,0.0,0.0,0.0,0.0,0.0
1754715288979515862,824,1754715289584000000,MoraiInfo,0,-1.9418853521347048,0.0027892850339412,0.0642402544617652,26.385253333892823,-10.12341477090454,0.0611821177601814,2.135620594024658,-8.471868932247162e-05,0.02485903352499,0.628753662109375,0.0,0.0,0.0,0.0,0.0,0.0,0.0,0.0,0.0,0.0,0.0,0.0,0.0,0.0,0.0,0.0
1754715288986638986,825,1754715289584000000,MoraiInfo,0,-1.9418853521347048,0.0027892850339412,0.0642402544617652,26.385253333892823,-10.12341477090454,0.0611821177601814,2.135620594024658,-8.471868932247162e-05,0.02485903352499,0.628753662109375,0.0,0.0,0.0,0.0,0.0,0.0,0.0,0.0,0.0,0.0,0.0,0.0,0.0,0.0,0.0,0.0
1754715289016860018,826,1754715289617000000,MoraiInfo,0,-1.7898153066635132,0.0028279088437557,0.0204625539481639,26.470553302612306,-10.122485415283203,0.0613511863350868,2.068195343017578,-7.276609539985657e-05,0.0267664864659309,0.630950927734375,0.0,0.0,0.0,0.0,0.0,0.0,0.0,0.0,0.0,0.0,0.0,0.0,0.0,0.0,0.0,0.0
1754715289032152480,827,1754715289651000000,MoraiInfo,0,-1.6643706560134888,0.001228554174304,-0.0411517322063446,26.530575656738282,-10.121829764190673,0.0614360037446022,2.034895658493042,-8.4681436419487e-05,0.0268661044538021,0.632476806640625,1.0,0.0,0.0,0.0,0.0,0.0,0.0,0.0,0.0,0.0,0.0,0.0,0.0,0.0,0.0,0.0
1754715289053333400,828,1754715289651000000,MoraiInfo,0,-1.6643706560134888,0.001228554174304,-0.0411517322063446,26.530575656738282,-10.121829764190673,0.0614360037446022,2.034895658493042,-8.4681436419487e-05,0.0268661044538021,0.632476806640625,1.0,0.0,0.0,0.0,0.0,0.0,0.0,0.0,0.0,0.0,0.0,0.0,0.0,0.0,0.0,0.0
1754715289075104987,829,1754715289683000000,MoraiInfo,0,-1.6931333541870115,0.0010351557284593,-0.0299591440707445,26.596768283691407,-10.121105448547363,0.0613508585095405,1.966254711151123,-8.087791502475739e-05,0.0277496520429849,0.6346435546875,1.0,0.0,0.0,0.0,0.0,0.0,0.0,0.0,0.0,0.0,0.0,0.0,0.0,0.0,0.0,0.0
1754715289099058871,830,1754715289715000000,MoraiInfo,0,3.435621738433838,0.0024388469755649,0.0451577566564083,26.65956773742676,-10.120422140899658,0.0609456959366798,2.0350492000579834,-0.0001198630779981,0.0220635682344436,0.6392822265625,1.0,0.0,0.0,0.0,0.0,0.0,0.0,0.0,0.0,0.0,0.0,0.0,0.0,0.0,0.0,0.0
1754715289104063423,831,1754715289716000000,MoraiInfo,0,3.435621738433838,0.0024388469755649,0.0451577566564083,26.65956773742676,-10.120422140899658,0.0609456959366798,2.0350492000579834,-0.0001198630779981,0.0220635682344436,0.6392822265625,1.0,0.0,0.0,0.0,0.0,0.0,0.0,0.0,0.0,0.0,0.0,0.0,0.0,0.0,0.0,0.0
1754715289111780350,832,1754715289749000000,MoraiInfo,0,2.1783573627471924,0.0057776067405939,-0.1123609989881515,26.73053255065918,-10.119646326843261,0.0607133831083774,2.1284680366516118,-0.0001941099762916,0.0186296459287405,0.6456298828125,1.0,0.0,0.0,0.0,0.0,0.0,0.0,0.0,0.0,0.0,0.0,0.0,0.0,0.0,0.0,0.0
1754715289164126345,833,1754715289783000000,MoraiInfo,0,2.3430299758911133,0.0062107965350151,-0.0019874521531164,26.806140804138185,-10.118810431304931,0.060565764755010604,2.2221832275390625,-0.0002547521144151,0.0159779377281665,0.6513671875,0.0,0.0,0.0,0.0,0.0,0.0,0.0,0.0,0.0,0.0,0.0,0.0,0.0,0.0,0.0,0.0
1754715289173014756,834,1754715289783000000,MoraiInfo,0,2.3430299758911133,0.0062107965350151,-0.0019874521531164,26.806140804138185,-10.118810431304931,0.060565764755010604,2.2221832275390625,-0.0002547521144151,0.0159779377281665,0.6513671875,0.0,0.0,0.0,0.0,0.0,0.0,0.0,0.0,0.0,0.0,0.0,0.0,0.0,0.0,0.0,0.0
1754715289179997241,835,1754715289817000000,MoraiInfo,0,1.014545440673828,0.0070636700838804,0.0052840732969343,26.882495784606935,-10.117946402374267,0.0606398198008537,2.242469072341919,-7.889047265052795e-05,0.016789261251688,0.65155029296875,0.0,0.0,0.0,0.0,0.0,0.0,0.0,0.0,0.0,0.0,0.0,0.0,0.0,0.0,0.0,0.0
1754715289226774549,836,1754715289850000000,MoraiInfo,0,-2.46665620803833,0.0030368100851774,-0.0128492806106805,26.956858539428712,-10.117106215301513,0.0610002770274877,2.20447301864624,-7.685087621212006e-05,0.0218893606215715,0.653411865234375,0.0,0.0,0.0,0.0,0.0,0.0,0.0,0.0,0.0,0.0,0.0,0.0,0.0,0.0,0.0,0.0
1754715289229344656,837,1754715289850000000,MoraiInfo,0,-2.46665620803833,0.0030368100851774,-0.0128492806106805,26.956858539428712,-10.117106215301513,0.0610002770274877,2.20447301864624,-7.685087621212006e-05,0.0218893606215715,0.653411865234375,0.0,0.0,0.0,0.0,0.0,0.0,0.0,0.0,0.0,0.0,0.0,0.0,0.0,0.0,0.0,0.0
1754715289243502730,838,1754715289882000000,MoraiInfo,0,-1.9510375261306765,0.0029163099825382,0.0747760608792305,27.026496791687013,-10.116317049804689,0.0612140528112649,2.139402151107788,-6.407499313354492e-05,0.0254562720656394,0.6551513671875,0.0,0.0,0.0,0.0,0.0,0.0,0.0,0.0,0.0,0.0,0.0,0.0,0.0,0.0,0.0,0.0
1754715289273301130,839,1754715289917000000,MoraiInfo,0,-1.573253512382507,0.0007936488837003,-0.0749514028429985,27.09381380065918,-10.11555220300293,0.0613422344624996,2.1079232692718506,-8.293800055980682e-05,0.0250876192003488,0.656768798828125,1.0,0.0,0.0,0.0,0.0,0.0,0.0,0.0,0.0,0.0,0.0,0.0,0.0,0.0,0.0,0.0
1754715289296908156,840,1754715289918000000,MoraiInfo,0,-1.573253512382507,0.0007936488837003,-0.0749514028429985,27.09381380065918,-10.11555220300293,0.0613422344624996,2.1079232692718506,-8.293800055980682e-05,0.0250876192003488,0.656768798828125,1.0,0.0,0.0,0.0,0.0,0.0,0.0,0.0,0.0,0.0,0.0,0.0,0.0,0.0,0.0,0.0
1754715289321589657,841,1754715289949000000,MoraiInfo,0,-1.66179358959198,0.000571921467781,-0.0431625694036483,27.166792774047853,-10.114723460021972,0.0611417318880558,2.038785696029663,-8.452683687210083e-05,0.0271378234028816,0.659454345703125,1.0,0.0,0.0,0.0,0.0,0.0,0.0,0.0,0.0,0.0,0.0,0.0,0.0,0.0,0.0,0.0
1754715289343962534,842,1754715289983000000,MoraiInfo,0,2.45341420173645,0.0022892765700817,0.1613963991403579,27.235844516601563,-10.11394144708252,0.0608478530496358,2.155822277069092,-0.0001870486885309,0.0229737311601638,0.664031982421875,1.0,0.0,0.0,0.0,0.0,0.0,0.0,0.0,0.0,0.0,0.0,0.0,0.0,0.0,0.0,0.0
1754715289366588997,843,1754715289983000000,MoraiInfo,0,2.45341420173645,0.0022892765700817,0.1613963991403579,27.235844516601563,-10.11394144708252,0.0608478530496358,2.155822277069092,-0.0001870486885309,0.0229737311601638,0.664031982421875,1.0,0.0,0.0,0.0,0.0,0.0,0.0,0.0,0.0,0.0,0.0,0.0,0.0,0.0,0.0,0.0
1754715289376311816,844,1754715290018000000,MoraiInfo,0,2.150643348693848,0.0060417875647544,-0.1089304536581039,27.310087108459474,-10.113087908569335,0.0606555870920419,2.198858499526977,-0.000194614753127,0.0185037869960069,0.666534423828125,0.0,0.0,0.0,0.0,0.0,0.0,0.0,0.0,0.0,0.0,0.0,0.0,0.0,0.0,0.0,0.0
1754715289419322616,845,1754715290050000000,MoraiInfo,0,0.3901459276676178,0.0016541490331292,-0.020010145381093,27.387575054016114,-10.112195746246337,0.0609122037142515,2.248706579208374,-0.0001384038478136,0.0188559181988239,0.6697998046875,0.0,0.0,0.0,0.0,0.0,0.0,0.0,0.0,0.0,0.0,0.0,0.0,0.0,0.0,0.0,0.0
1754715289455874021,846,1754715290050000000,MoraiInfo,0,0.3901459276676178,0.0016541490331292,-0.020010145381093,27.387575054016114,-10.112195746246337,0.0609122037142515,2.248706579208374,-0.0001384038478136,0.0188559181988239,0.6697998046875,0.0,0.0,0.0,0.0,0.0,0.0,0.0,0.0,0.0,0.0,0.0,0.0,0.0,0.0,0.0,0.0
1754715289462990552,847,1754715290087000000,MoraiInfo,0,-1.317003607749939,0.0028637526556849,-0.0655361339449882,27.460466289367677,-10.11135126763916,0.0611155430972576,2.172987222671509,-0.0001096315681934,0.0221378747373819,0.67205810546875,0.0,0.0,0.0,0.0,0.0,0.0,0.0,0.0,0.0,0.0,0.0,0.0,0.0,0.0,0.0,0.0
1754715289516249560,848,1754715290120000000,MoraiInfo,0,-1.5817322731018066,0.0017810966819524,-0.0685618370771408,27.537280940856935,-10.11045672113037,0.0612985144555568,2.102567434310913,-9.883753955364229e-05,0.025628937408328,0.6741943359375,0.0,0.0,0.0,0.0,0.0,0.0,0.0,0.0,0.0,0.0,0.0,0.0,0.0,0.0,0.0,0.0
1754715289536815913,849,1754715290120000000,MoraiInfo,0,-1.5817322731018066,0.0017810966819524,-0.0685618370771408,27.537280940856935,-10.11045672113037,0.0612985144555568,2.102567434310913,-9.883753955364229e-05,0.025628937408328,0.6741943359375,0.0,0.0,0.0,0.0,0.0,0.0,0.0,0.0,0.0,0.0,0.0,0.0,0.0,0.0,0.0,0.0
1754715289542415395,850,1754715290150000000,MoraiInfo,0,-1.7877469062805176,0.0031881518661975,0.018264390528202,27.604576015319825,-10.109670416656494,0.0614181745052337,2.066793918609619,-7.634237408638e-05,0.0274691917002201,0.676025390625,0.0,0.0,0.0,0.0,0.0,0.0,0.0,0.0,0.0,0.0,0.0,0.0,0.0,0.0,0.0,0.0
1754715289570421641,851,1754715290186000000,MoraiInfo,0,-1.7369202375411987,0.002977792173624,-0.0070684039965271,27.6650341986084,-10.108962313476562,0.0614952321350574,1.998733639717102,-6.74910843372345e-05,0.028153134509921,0.677581787109375,1.0,0.0,0.0,0.0,0.0,0.0,0.0,0.0,0.0,0.0,0.0,0.0,0.0,0.0,0.0,0.0
1754715289600488805,852,1754715290186000000,MoraiInfo,0,-1.7369202375411987,0.002977792173624,-0.0070684039965271,27.6650341986084,-10.108962313476562,0.0614952321350574,1.998733639717102,-6.74910843372345e-05,0.028153134509921,0.677581787109375,1.0,0.0,0.0,0.0,0.0,0.0,0.0,0.0,0.0,0.0,0.0,0.0,0.0,0.0,0.0,0.0
1754715289602331019,853,1754715290217000000,MoraiInfo,0,-1.7186601161956787,0.0027619563043117,-0.0180864352732896,27.73679532989502,-10.108119742218017,0.0615081253647804,1.9304802417755127,-6.352178752422333e-05,0.0282612368464469,0.6795654296875,1.0,0.0,0.0,0.0,0.0,0.0,0.0,0.0,0.0,0.0,0.0,0.0,0.0,0.0,0.0,0.0
1754715289609847807,854,1754715290252000000,MoraiInfo,0,3.455879211425781,0.0012260787189006,0.0375036746263504,27.796271228637696,-10.107424036804199,0.061008331105113,1.9996840953826904,-0.0001087468117475,0.0223307125270366,0.68353271484375,1.0,0.0,0.0,0.0,0.0,0.0,0.0,0.0,0.0,0.0,0.0,0.0,0.0,0.0,0.0,0.0
1754715289639403960,855,1754715290252000000,MoraiInfo,0,3.455879211425781,0.0012260787189006,0.0375036746263504,27.796271228637696,-10.107424036804199,0.061008331105113,1.9996840953826904,-0.0001087468117475,0.0223307125270366,0.68353271484375,1.0,0.0,0.0,0.0,0.0,0.0,0.0,0.0,0.0,0.0,0.0,0.0,0.0,0.0,0.0,0.0
1754715289645009751,856,1754715290284000000,MoraiInfo,0,2.1891486644744877,0.0057079382240772,-0.1148496568202972,27.86966791137695,-10.106565729919433,0.0607565368711948,2.093690872192383,-0.0001822803169488,0.0187880210578441,0.690185546875,0.0,0.0,0.0,0.0,0.0,0.0,0.0,0.0,0.0,0.0,0.0,0.0,0.0,0.0,0.0,0.0
1754715289679232406,857,1754715290320000000,MoraiInfo,0,2.401654005050659,0.0074831470847129,0.0548003129661083,27.939356708374024,-10.105743662658691,0.0605773522704839,2.141741752624512,-0.0002054292708635,0.0177552141249179,0.697113037109375,0.0,0.0,0.0,0.0,0.0,0.0,0.0,0.0,0.0,0.0,0.0,0.0,0.0,0.0,0.0,0.0
1754715289702350031,858,1754715290320000000,MoraiInfo,0,2.401654005050659,0.0074831470847129,0.0548003129661083,27.939356708374024,-10.105743662658691,0.0605773522704839,2.141741752624512,-0.0002054292708635,0.0177552141249179,0.697113037109375,0.0,0.0,0.0,0.0,0.0,0.0,0.0,0.0,0.0,0.0,0.0,0.0,0.0,0.0,0.0,0.0
1754715289734620605,859,1754715290353000000,MoraiInfo,0,-2.631934881210327,0.0074271876364946,-0.0311195105314254,28.017986202087403,-10.104792849365234,0.060982393771409904,2.1359968185424805,-8.414499461650848e-05,0.0217234753072261,0.69818115234375,0.0,0.0,0.0,0.0,0.0,0.0,0.0,0.0,0.0,0.0,0.0,0.0,0.0,0.0,0.0,0.0
1754715289756906525,860,1754715290385000000,MoraiInfo,0,-2.0292022228240967,0.004328740760684,0.1158971413969993,28.0833052633667,-10.104002253356933,0.0612125794589519,2.071882963180542,-6.066076457500458e-05,0.0247779879719018,0.6998291015625,0.0,0.0,0.0,0.0,0.0,0.0,0.0,0.0,0.0,0.0,0.0,0.0,0.0,0.0,0.0,0.0
1754715289774640846,861,1754715290386000000,MoraiInfo,0,-2.0292022228240967,0.004328740760684,0.1158971413969993,28.0833052633667,-10.104002253356933,0.0612125794589519,2.071882963180542,-6.066076457500458e-05,0.0247779879719018,0.6998291015625,0.0,0.0,0.0,0.0,0.0,0.0,0.0,0.0,0.0,0.0,0.0,0.0,0.0,0.0,0.0,0.0
1754715289780746364,862,1754715290419000000,MoraiInfo,0,-1.821864128112793,0.0042236819863319,0.0380761288106441,28.1511763571167,-10.103178755584716,0.061356282532215096,2.0048844814300537,-5.028583109378815e-05,0.0262180492281913,0.701568603515625,0.0,0.0,0.0,0.0,0.0,0.0,0.0,0.0,0.0,0.0,0.0,0.0,0.0,0.0,0.0,0.0
1754715289826137186,863,1754715290453000000,MoraiInfo,0,-1.644934892654419,-0.0003696233034133,-0.051829770207405,28.21486463531494,-10.102403895202636,0.0614428098499774,1.9719749689102173,-9.272992610931396e-05,0.02598780952394,0.703216552734375,0.0,0.0,0.0,0.0,0.0,0.0,0.0,0.0,0.0,0.0,0.0,0.0,0.0,0.0,0.0,0.0
1754715289847321823,864,1754715290453000000,MoraiInfo,0,-1.644934892654419,-0.0003696233034133,-0.051829770207405,28.21486463531494,-10.102403895202636,0.0614428098499774,1.9719749689102173,-9.272992610931396e-05,0.02598780952394,0.703216552734375,0.0,0.0,0.0,0.0,0.0,0.0,0.0,0.0,0.0,0.0,0.0,0.0,0.0,0.0,0.0,0.0
1754715289853025449,865,1754715290485000000,MoraiInfo,0,-1.6861001253128052,-0.0002242773771286,-0.033811055123806,28.281153583374024,-10.10159613305664,0.0615171480178833,1.9032427072525024,-8.872523903846741e-05,0.0268612951040267,0.7049560546875,0.0,0.0,0.0,0.0,0.0,0.0,0.0,0.0,0.0,0.0,0.0,0.0,0.0,0.0,0.0,0.0
1754715289895721483,866,1754715290520000000,MoraiInfo,0,-1.700472116470337,-9.495392441749571e-05,-0.0279086232185363,28.341116809692387,-10.100863234344482,0.061567901372909496,1.8347538709640503,-8.504651486873627e-05,0.0269678588956594,0.70660400390625,0.0,0.0,0.0,0.0,0.0,0.0,0.0,0.0,0.0,0.0,0.0,0.0,0.0,0.0,0.0,0.0
1754715289926319131,867,1754715290520000000,MoraiInfo,0,-1.700472116470337,-9.495392441749571e-05,-0.0279086232185363,28.341116809692387,-10.100863234344482,0.061567901372909496,1.8347538709640503,-8.504651486873627e-05,0.0269678588956594,0.70660400390625,0.0,0.0,0.0,0.0,0.0,0.0,0.0,0.0,0.0,0.0,0.0,0.0,0.0,0.0,0.0,0.0
1754715289936686605,868,1754715290554000000,MoraiInfo,0,-1.7136242389678955,0.0033061131834983,-0.0214435346424579,28.401320361938478,-10.100126520935058,0.0616052660346031,1.8004759550094604,-5.0378963351249695e-05,0.0268872622400522,0.708343505859375,0.0,0.0,19.479999542236328,0.0,0.0,0.0,0.0,0.0,0.0,0.0,0.0,0.0,0.0,0.0,0.0,0.0
1754715289966810910,869,1754715290589000000,MoraiInfo,0,-1.7099382877349854,0.0030508209019899,-0.0242274645715951,28.461460018005376,-10.099387900177001,0.061632225960492996,1.7321606874465942,-5.047023296356201e-05,0.026352671906352,0.7100830078125,0.0,0.0,19.479999542236328,0.0,0.0,0.0,0.0,0.0,0.0,0.0,0.0,0.0,0.0,0.0,0.0,0.0
1754715289994843908,870,1754715290589000000,MoraiInfo,0,-1.7099382877349854,0.0030508209019899,-0.0242274645715951,28.461460018005376,-10.099387900177001,0.061632225960492996,1.7321606874465942,-5.047023296356201e-05,0.026352671906352,0.7100830078125,0.0,0.0,19.479999542236328,0.0,0.0,0.0,0.0,0.0,0.0,0.0,0.0,0.0,0.0,0.0,0.0,0.0
1754715290004108520,871,1754715290621000000,MoraiInfo,0,-2.174623250961304,-4.169778823852539,-0.0610110834240913,28.52853765472412,-10.098811404052734,0.0617632257938385,1.6543943881988523,-0.0635034441947937,0.0255939289927482,-0.4779052734375,0.0,0.0,19.479999542236328,0.0,0.0,0.0,0.0,0.0,0.0,0.0,0.0,0.0,0.0,0.0,0.0,0.0
1754715290016201641,872,1754715290656000000,MoraiInfo,0,-3.234818935394287,-3.715668201446533,-0.0854645818471908,28.569225215759275,-10.099654452148437,0.0618498834967613,1.5905498266220093,-0.107638195157051,0.0258153993636369,-2.080841064453125,0.0,0.0,0.0,0.0,0.0,0.0,0.0,0.0,0.0,0.0,0.0,0.0,0.0,0.0,0.0,0.0
1754715290039105729,873,1754715290656000000,MoraiInfo,0,-3.234818935394287,-3.715668201446533,-0.0854645818471908,28.569225215759275,-10.099654452148437,0.0618498834967613,1.5905498266220093,-0.107638195157051,0.0258153993636369,-2.080841064453125,0.0,0.0,0.0,0.0,0.0,0.0,0.0,0.0,0.0,0.0,0.0,0.0,0.0,0.0,0.0,0.0
1754715290062048799,874,1754715290687000000,MoraiInfo,0,-2.6820104122161865,-3.050248861312866,-0.035831868648529,28.619474315490727,-10.102730528656005,0.0619083258509635,1.4886882305145264,-0.1701151430606842,0.0243633985519409,-4.68701171875,0.0,0.0,0.0,0.0,0.0,0.0,0.0,0.0,0.0,0.0,0.0,0.0,0.0,0.0,0.0,0.0
1754715290098479947,875,1754715290724000000,MoraiInfo,0,-1.3115320205688477,4.237720012664795,-0.0078627103939652,28.66466894134522,-10.107351080718994,0.0618167135119438,1.4213862419128418,-0.0819567888975143,0.0239671468734741,-6.171875,0.0,0.0,0.0,0.0,0.0,0.0,0.0,0.0,0.0,0.0,0.0,0.0,0.0,0.0,0.0,0.0
1754715290109090466,876,1754715290724000000,MoraiInfo,0,-1.3115320205688477,4.237720012664795,-0.0078627103939652,28.66466894134522,-10.107351080718994,0.0618167135119438,1.4213862419128418,-0.0819567888975143,0.0239671468734741,-6.171875,0.0,0.0,0.0,0.0,0.0,0.0,0.0,0.0,0.0,0.0,0.0,0.0,0.0,0.0,0.0,0.0
1754715290137837410,877,1754715290754000000,MoraiInfo,0,-1.8862073421478271,1.6513705253601074,-0.0032466268166899,28.71468057617188,-10.11252142602539,0.061793568283319396,1.3842711448669434,-0.037700816988945,0.0235506277531385,-6.80023193359375,0.0,0.0,0.0,0.0,0.0,0.0,0.0,0.0,0.0,0.0,0.0,0.0,0.0,0.0,0.0,0.0
1754715290176555631,878,1754715290790000000,MoraiInfo,0,-1.7328234910964966,-0.0510683953762054,-0.0187092348933219,28.753581905212403,-10.116886393371582,0.0617714810371398,1.3162665367126465,-0.0058707445859909,0.0217260923236608,-7.001434326171875,0.0,0.0,0.0,0.0,0.0,0.0,0.0,0.0,0.0,0.0,0.0,0.0,0.0,0.0,0.0,0.0
1754715290228842344,879,1754715290790000000,MoraiInfo,0,-1.7328234910964966,-0.0510683953762054,-0.0187092348933219,28.753581905212403,-10.116886393371582,0.0617714810371398,1.3162665367126465,-0.0058707445859909,0.0217260923236608,-7.001434326171875,0.0,0.0,0.0,0.0,0.0,0.0,0.0,0.0,0.0,0.0,0.0,0.0,0.0,0.0,0.0,0.0
1754715290253238275,880,1754715290822000000,MoraiInfo,0,-1.713407278060913,-0.2996377348899841,-0.038413930684328,28.798338794555665,-10.122159258666992,0.0617459292709827,1.2481497526168823,-0.0012695044279098,0.0201570931822061,-7.1046142578125,0.0,0.0,0.0,0.0,0.0,0.0,0.0,0.0,0.0,0.0,0.0,0.0,0.0,0.0,0.0,0.0
1754715290268428226,881,1754715290857000000,MoraiInfo,0,-1.7023215293884275,0.223321795463562,-0.0168959945440292,28.836819553222657,-10.12684609109497,0.061729534268379196,1.2141048908233645,0.0039035826921463,0.019744923338294,-7.14068603515625,0.0,0.0,0.0,0.0,0.0,0.0,0.0,0.0,0.0,0.0,0.0,0.0,0.0,0.0,0.0,0.0
1754715290269286605,882,1754715290857000000,MoraiInfo,0,-1.7023215293884275,0.223321795463562,-0.0168959945440292,28.836819553222657,-10.12684609109497,0.061729534268379196,1.2141048908233645,0.0039035826921463,0.019744923338294,-7.14068603515625,0.0,0.0,0.0,0.0,0.0,0.0,0.0,0.0,0.0,0.0,0.0,0.0,0.0,0.0,0.0,0.0
1754715290299735108,883,1754715290892000000,MoraiInfo,0,-1.6818145513534546,0.1860034167766571,-0.0146633777767419,28.877971553649903,-10.131940142456054,0.0617147299647331,1.1465600728988647,0.0027653574943542,0.0184835344552993,-7.15618896484375,0.0,0.0,0.0,0.0,0.0,0.0,0.0,0.0,0.0,0.0,0.0,0.0,0.0,0.0,0.0,0.0
1754715290330086609,884,1754715290924000000,MoraiInfo,0,-1.6344451904296875,0.1627179086208343,-0.0146205937489867,28.913494014587403,-10.136371390167236,0.061701270490884697,1.0807466506958008,0.0019226372241973,0.0172648821026086,-7.1610107421875,0.0,0.0,0.0,0.0,0.0,0.0,0.0,0.0,0.0,0.0,0.0,0.0,0.0,0.0,0.0,0.0
1754715290367534811,885,1754715290924000000,MoraiInfo,0,-1.6344451904296875,0.1627179086208343,-0.0146205937489867,28.913494014587403,-10.136371390167236,0.061701270490884697,1.0807466506958008,0.0019226372241973,0.0172648821026086,-7.1610107421875,0.0,0.0,0.0,0.0,0.0,0.0,0.0,0.0,0.0,0.0,0.0,0.0,0.0,0.0,0.0,0.0
1754715290367550067,886,1754715290956000000,MoraiInfo,0,-1.597675919532776,-0.166377991437912,-0.0359818004071712,28.9474352835083,-10.140625731292724,0.0616851064562797,1.0487947463989258,-0.0014299005270004,0.0164492893964052,-7.162139892578125,0.0,0.0,-19.479999542236328,0.0,0.0,0.0,0.0,0.0,0.0,0.0,0.0,0.0,0.0,0.0,0.0,0.0
1754715290369993489,887,1754715290992000000,MoraiInfo,0,-1.523896098136902,-0.132763534784317,-0.0325722657144069,28.97715749725342,-10.144375578704834,0.0616651612520217,0.9869701266288756,-0.0012833699584007,0.0153338033705949,-7.1617431640625,0.0,0.0,-19.479999542236328,0.0,0.0,0.0,0.0,0.0,0.0,0.0,0.0,0.0,0.0,0.0,0.0,0.0
1754715290380221868,888,1754715290992000000,MoraiInfo,0,-1.523896098136902,-0.132763534784317,-0.0325722657144069,28.97715749725342,-10.144375578704834,0.0616651612520217,0.9869701266288756,-0.0012833699584007,0.0153338033705949,-7.1617431640625,0.0,0.0,-19.479999542236328,0.0,0.0,0.0,0.0,0.0,0.0,0.0,0.0,0.0,0.0,0.0,0.0,0.0
1754715290429486996,889,1754715291023000000,MoraiInfo,0,-2.1881110668182373,4.0230631828308105,-0.067757174372673,29.01018991455078,-10.148406283203125,0.061725041568279196,0.9134023785591124,0.0701459348201751,0.0140724247321486,-6.237548828125,0.0,0.0,-19.479999542236328,0.0,0.0,0.0,0.0,0.0,0.0,0.0,0.0,0.0,0.0,0.0,0.0,0.0
